consent_form.block_1/question2,participant,session,date,expName,psychopyVersion,OS,frameRate,cbingDFv2.group,cbingDFv2.remaining,code.started,code.stopped,trial.started,trial.stopped,training_instruction.started,training_instruction.stopped,key_resp.keys,key_resp.rt,key_resp.duration,training2.started,training2.stopped,trials2.thisRepN,trials2.thisTrialN,trials2.thisN,trials2.thisIndex,trials2.ran,"ID",word,easy_hard,old_new,R_F,testing_instruction.started,testing_instruction.stopped,key_resp_2.keys,key_resp_2.rt,key_resp_2.duration,testing_phase.started,testing_phase.stopped,testing_input.keys,testing_input.rt,testing_input.duration,testing.thisRepN,testing.thisTrialN,testing.thisN,testing.thisIndex,testing.ran,KFFRQ,ART_instruction.started,ART_instruction.stopped,ART.started,ART.stopped,key_resp_LDT.keys,key_resp_LDT.rt,key_resp_LDT.duration,ART_trials.thisRepN,ART_trials.thisTrialN,ART_trials.thisN,ART_trials.thisIndex,ART_trials.ran,Index,Author,real,LexTALE_instruction.started,LexTALE_instruction.stopped,LexTALE.started,LexTALE.stopped,key_resp_LDT_2.keys,key_resp_LDT_2.rt,key_resp_LDT_2.duration,LexTALE_trials.thisRepN,LexTALE_trials.thisTrialN,LexTALE_trials.thisN,LexTALE_trials.thisIndex,LexTALE_trials.ran,Word,Real,language_background_q.block_1/Q1,language_background_q.block_1/Q2,language_background_q.block_1/Q12,language_background_q.block_1/Q3,language_background_q.block_1/Q5,language_background_q.block_1/Q6,language_background_q.block_1/question1,language_background_q.block_1/Q21,language_background_q.block_1/Q22,language_background_q.block_1/Q23,language_background_q.block_1/Q48,language_background_q.block_1/Q54,language_background_q.block_1/Q55,language_background_q.block_1/Q59,language_background_q.block_1/Q62,language_background_q.block_1/Q63,language_background_q.block_1/Q64,language_background_q.block_1/Q56,language_background_q.block_1/Q57,language_background_q.block_1/Q58,language_background_q.block_1/Q60
"[""Item 1""]",053276,001,2026-04-03_11h04.21.768,DFv2,2026.1.1,MacIntel,61.34969325,,,,,,,,,,,,,,,,,,,,,,,,,,,,,,,,,,,,,,,,,,,,,,,,,,,,,,,,,,,,,,,,,,,,,,,,,,,,,,,,,,,,,,,,,
,053276,001,2026-04-03_11h04.21.768,DFv2,2026.1.1,MacIntel,61.34969325,2,,8.6712,8.6713,,,,,,,,,,,,,,,,,,,,,,,,,,,,,,,,,,,,,,,,,,,,,,,,,,,,,,,,,,,,,,,,,,,,,,,,,,,,,,,,,,,,,
,053276,001,2026-04-03_11h04.21.768,DFv2,2026.1.1,MacIntel,61.34969325,,,,,8.6716,13.6598,,,,,,,,,,,,,,,,,,,,,,,,,,,,,,,,,,,,,,,,,,,,,,,,,,,,,,,,,,,,,,,,,,,,,,,,,,,,,,,,,,,
,053276,001,2026-04-03_11h04.21.768,DFv2,2026.1.1,MacIntel,61.34969325,,,,,,,13.6599,147.6444,space,133.9566,,,,,,,,,,,,,,,,,,,,,,,,,,,,,,,,,,,,,,,,,,,,,,,,,,,,,,,,,,,,,,,,,,,,,,,,,,,,,,,
,053276,001,2026-04-03_11h04.21.768,DFv2,2026.1.1,MacIntel,61.34969325,,,,,,,,,,,,147.6825,150.6435,0,0,0,42,1,43,PACIFY,hard,old,F,,,,,,,,,,,,,,,,,,,,,,,,,,,,,,,,,,,,,,,,,,,,,,,,,,,,,,,,,,,,,,,,,,
,053276,001,2026-04-03_11h04.21.768,DFv2,2026.1.1,MacIntel,61.34969325,,,,,,,,,,,,150.6456,153.6432,0,1,1,30,1,31,SEMINAL,hard,old,R,,,,,,,,,,,,,,,,,,,,,,,,,,,,,,,,,,,,,,,,,,,,,,,,,,,,,,,,,,,,,,,,,,
,053276,001,2026-04-03_11h04.21.768,DFv2,2026.1.1,MacIntel,61.34969325,,,,,,,,,,,,153.6451,156.6432,0,2,2,23,1,24,LEADING,easy,old,F,,,,,,,,,,,,,,,,,,,,,,,,,,,,,,,,,,,,,,,,,,,,,,,,,,,,,,,,,,,,,,,,,,
,053276,001,2026-04-03_11h04.21.768,DFv2,2026.1.1,MacIntel,61.34969325,,,,,,,,,,,,156.6447,159.6433,0,3,3,35,1,36,APPEASE,hard,old,F,,,,,,,,,,,,,,,,,,,,,,,,,,,,,,,,,,,,,,,,,,,,,,,,,,,,,,,,,,,,,,,,,,
,053276,001,2026-04-03_11h04.21.768,DFv2,2026.1.1,MacIntel,61.34969325,,,,,,,,,,,,159.6447,162.6432,0,4,4,18,1,19,BRANCH,easy,old,F,,,,,,,,,,,,,,,,,,,,,,,,,,,,,,,,,,,,,,,,,,,,,,,,,,,,,,,,,,,,,,,,,,
,053276,001,2026-04-03_11h04.21.768,DFv2,2026.1.1,MacIntel,61.34969325,,,,,,,,,,,,162.645,165.6433,0,5,5,7,1,8,SERVING,easy,old,R,,,,,,,,,,,,,,,,,,,,,,,,,,,,,,,,,,,,,,,,,,,,,,,,,,,,,,,,,,,,,,,,,,
,053276,001,2026-04-03_11h04.21.768,DFv2,2026.1.1,MacIntel,61.34969325,,,,,,,,,,,,165.6451,168.6432,0,6,6,21,1,22,ENTER,easy,old,F,,,,,,,,,,,,,,,,,,,,,,,,,,,,,,,,,,,,,,,,,,,,,,,,,,,,,,,,,,,,,,,,,,
,053276,001,2026-04-03_11h04.21.768,DFv2,2026.1.1,MacIntel,61.34969325,,,,,,,,,,,,168.6446,171.6433,0,7,7,4,1,5,PARTNER,easy,old,F,,,,,,,,,,,,,,,,,,,,,,,,,,,,,,,,,,,,,,,,,,,,,,,,,,,,,,,,,,,,,,,,,,
,053276,001,2026-04-03_11h04.21.768,DFv2,2026.1.1,MacIntel,61.34969325,,,,,,,,,,,,171.6447,174.6433,0,8,8,33,1,34,AMIABLE,hard,old,F,,,,,,,,,,,,,,,,,,,,,,,,,,,,,,,,,,,,,,,,,,,,,,,,,,,,,,,,,,,,,,,,,,
,053276,001,2026-04-03_11h04.21.768,DFv2,2026.1.1,MacIntel,61.34969325,,,,,,,,,,,,174.6448,177.6432,0,9,9,22,1,23,DECLINE,easy,old,R,,,,,,,,,,,,,,,,,,,,,,,,,,,,,,,,,,,,,,,,,,,,,,,,,,,,,,,,,,,,,,,,,,
,053276,001,2026-04-03_11h04.21.768,DFv2,2026.1.1,MacIntel,61.34969325,,,,,,,,,,,,177.6443,180.6433,0,10,10,32,1,33,TORPID,hard,old,R,,,,,,,,,,,,,,,,,,,,,,,,,,,,,,,,,,,,,,,,,,,,,,,,,,,,,,,,,,,,,,,,,,
,053276,001,2026-04-03_11h04.21.768,DFv2,2026.1.1,MacIntel,61.34969325,,,,,,,,,,,,180.645,183.6432,0,11,11,46,1,47,PRUDENT,hard,old,F,,,,,,,,,,,,,,,,,,,,,,,,,,,,,,,,,,,,,,,,,,,,,,,,,,,,,,,,,,,,,,,,,,
,053276,001,2026-04-03_11h04.21.768,DFv2,2026.1.1,MacIntel,61.34969325,,,,,,,,,,,,183.6446,186.6433,0,12,12,45,1,46,PROSAIC,hard,old,R,,,,,,,,,,,,,,,,,,,,,,,,,,,,,,,,,,,,,,,,,,,,,,,,,,,,,,,,,,,,,,,,,,
,053276,001,2026-04-03_11h04.21.768,DFv2,2026.1.1,MacIntel,61.34969325,,,,,,,,,,,,186.6449,189.6432,0,13,13,14,1,15,EMPTY,easy,old,F,,,,,,,,,,,,,,,,,,,,,,,,,,,,,,,,,,,,,,,,,,,,,,,,,,,,,,,,,,,,,,,,,,
,053276,001,2026-04-03_11h04.21.768,DFv2,2026.1.1,MacIntel,61.34969325,,,,,,,,,,,,189.6442,192.6434,0,14,14,29,1,30,REPLETE,hard,old,F,,,,,,,,,,,,,,,,,,,,,,,,,,,,,,,,,,,,,,,,,,,,,,,,,,,,,,,,,,,,,,,,,,
,053276,001,2026-04-03_11h04.21.768,DFv2,2026.1.1,MacIntel,61.34969325,,,,,,,,,,,,192.6451,195.6432,0,15,15,20,1,21,SHOCK,easy,old,R,,,,,,,,,,,,,,,,,,,,,,,,,,,,,,,,,,,,,,,,,,,,,,,,,,,,,,,,,,,,,,,,,,
,053276,001,2026-04-03_11h04.21.768,DFv2,2026.1.1,MacIntel,61.34969325,,,,,,,,,,,,195.6445,198.6432,0,16,16,11,1,12,BELIEF,easy,old,R,,,,,,,,,,,,,,,,,,,,,,,,,,,,,,,,,,,,,,,,,,,,,,,,,,,,,,,,,,,,,,,,,,
,053276,001,2026-04-03_11h04.21.768,DFv2,2026.1.1,MacIntel,61.34969325,,,,,,,,,,,,198.6444,201.6434,0,17,17,13,1,14,GRAVE,easy,old,R,,,,,,,,,,,,,,,,,,,,,,,,,,,,,,,,,,,,,,,,,,,,,,,,,,,,,,,,,,,,,,,,,,
,053276,001,2026-04-03_11h04.21.768,DFv2,2026.1.1,MacIntel,61.34969325,,,,,,,,,,,,201.6454,204.6434,0,18,18,2,1,3,ADDRESS,easy,old,F,,,,,,,,,,,,,,,,,,,,,,,,,,,,,,,,,,,,,,,,,,,,,,,,,,,,,,,,,,,,,,,,,,
,053276,001,2026-04-03_11h04.21.768,DFv2,2026.1.1,MacIntel,61.34969325,,,,,,,,,,,,204.6447,207.6433,0,19,19,6,1,7,SLIGHT,easy,old,F,,,,,,,,,,,,,,,,,,,,,,,,,,,,,,,,,,,,,,,,,,,,,,,,,,,,,,,,,,,,,,,,,,
,053276,001,2026-04-03_11h04.21.768,DFv2,2026.1.1,MacIntel,61.34969325,,,,,,,,,,,,207.645,210.6434,0,20,20,26,1,27,RATIFY,hard,old,R,,,,,,,,,,,,,,,,,,,,,,,,,,,,,,,,,,,,,,,,,,,,,,,,,,,,,,,,,,,,,,,,,,
,053276,001,2026-04-03_11h04.21.768,DFv2,2026.1.1,MacIntel,61.34969325,,,,,,,,,,,,210.6449,213.6434,0,21,21,16,1,17,SUDDEN,easy,old,F,,,,,,,,,,,,,,,,,,,,,,,,,,,,,,,,,,,,,,,,,,,,,,,,,,,,,,,,,,,,,,,,,,
,053276,001,2026-04-03_11h04.21.768,DFv2,2026.1.1,MacIntel,61.34969325,,,,,,,,,,,,213.6446,216.6433,0,22,22,37,1,38,COERCE,hard,old,F,,,,,,,,,,,,,,,,,,,,,,,,,,,,,,,,,,,,,,,,,,,,,,,,,,,,,,,,,,,,,,,,,,
,053276,001,2026-04-03_11h04.21.768,DFv2,2026.1.1,MacIntel,61.34969325,,,,,,,,,,,,216.6444,219.6434,0,23,23,39,1,40,INEPT,hard,old,F,,,,,,,,,,,,,,,,,,,,,,,,,,,,,,,,,,,,,,,,,,,,,,,,,,,,,,,,,,,,,,,,,,
,053276,001,2026-04-03_11h04.21.768,DFv2,2026.1.1,MacIntel,61.34969325,,,,,,,,,,,,219.645,222.6434,0,24,24,24,1,25,PROFANE,hard,old,R,,,,,,,,,,,,,,,,,,,,,,,,,,,,,,,,,,,,,,,,,,,,,,,,,,,,,,,,,,,,,,,,,,
,053276,001,2026-04-03_11h04.21.768,DFv2,2026.1.1,MacIntel,61.34969325,,,,,,,,,,,,222.6447,225.6436,0,25,25,43,1,44,PARAGON,hard,old,R,,,,,,,,,,,,,,,,,,,,,,,,,,,,,,,,,,,,,,,,,,,,,,,,,,,,,,,,,,,,,,,,,,
,053276,001,2026-04-03_11h04.21.768,DFv2,2026.1.1,MacIntel,61.34969325,,,,,,,,,,,,225.6456,228.6434,0,26,26,25,1,26,PUERILE,hard,old,F,,,,,,,,,,,,,,,,,,,,,,,,,,,,,,,,,,,,,,,,,,,,,,,,,,,,,,,,,,,,,,,,,,
,053276,001,2026-04-03_11h04.21.768,DFv2,2026.1.1,MacIntel,61.34969325,,,,,,,,,,,,228.6446,231.6434,0,27,27,10,1,11,ANGRY,easy,old,F,,,,,,,,,,,,,,,,,,,,,,,,,,,,,,,,,,,,,,,,,,,,,,,,,,,,,,,,,,,,,,,,,,
,053276,001,2026-04-03_11h04.21.768,DFv2,2026.1.1,MacIntel,61.34969325,,,,,,,,,,,,231.6446,234.6434,0,28,28,44,1,45,PROFUSE,hard,old,F,,,,,,,,,,,,,,,,,,,,,,,,,,,,,,,,,,,,,,,,,,,,,,,,,,,,,,,,,,,,,,,,,,
,053276,001,2026-04-03_11h04.21.768,DFv2,2026.1.1,MacIntel,61.34969325,,,,,,,,,,,,234.6447,237.6434,0,29,29,41,1,42,MOLLIFY,hard,old,R,,,,,,,,,,,,,,,,,,,,,,,,,,,,,,,,,,,,,,,,,,,,,,,,,,,,,,,,,,,,,,,,,,
,053276,001,2026-04-03_11h04.21.768,DFv2,2026.1.1,MacIntel,61.34969325,,,,,,,,,,,,237.6449,240.6434,0,30,30,12,1,13,WEATHER,easy,old,F,,,,,,,,,,,,,,,,,,,,,,,,,,,,,,,,,,,,,,,,,,,,,,,,,,,,,,,,,,,,,,,,,,
,053276,001,2026-04-03_11h04.21.768,DFv2,2026.1.1,MacIntel,61.34969325,,,,,,,,,,,,240.6451,243.6435,0,31,31,34,1,35,BANAL,hard,old,R,,,,,,,,,,,,,,,,,,,,,,,,,,,,,,,,,,,,,,,,,,,,,,,,,,,,,,,,,,,,,,,,,,
,053276,001,2026-04-03_11h04.21.768,DFv2,2026.1.1,MacIntel,61.34969325,,,,,,,,,,,,243.6449,246.6435,0,32,32,17,1,18,FLIGHT,easy,old,R,,,,,,,,,,,,,,,,,,,,,,,,,,,,,,,,,,,,,,,,,,,,,,,,,,,,,,,,,,,,,,,,,,
,053276,001,2026-04-03_11h04.21.768,DFv2,2026.1.1,MacIntel,61.34969325,,,,,,,,,,,,246.6453,249.6435,0,33,33,31,1,32,SQUALID,hard,old,F,,,,,,,,,,,,,,,,,,,,,,,,,,,,,,,,,,,,,,,,,,,,,,,,,,,,,,,,,,,,,,,,,,
,053276,001,2026-04-03_11h04.21.768,DFv2,2026.1.1,MacIntel,61.34969325,,,,,,,,,,,,249.6447,252.6435,0,34,34,8,1,9,SOLDIER,easy,old,F,,,,,,,,,,,,,,,,,,,,,,,,,,,,,,,,,,,,,,,,,,,,,,,,,,,,,,,,,,,,,,,,,,
,053276,001,2026-04-03_11h04.21.768,DFv2,2026.1.1,MacIntel,61.34969325,,,,,,,,,,,,252.6445,255.6435,0,35,35,0,1,1,LEADER,easy,old,F,,,,,,,,,,,,,,,,,,,,,,,,,,,,,,,,,,,,,,,,,,,,,,,,,,,,,,,,,,,,,,,,,,
,053276,001,2026-04-03_11h04.21.768,DFv2,2026.1.1,MacIntel,61.34969325,,,,,,,,,,,,255.645,258.6426,0,36,36,19,1,20,BURNING,easy,old,R,,,,,,,,,,,,,,,,,,,,,,,,,,,,,,,,,,,,,,,,,,,,,,,,,,,,,,,,,,,,,,,,,,
,053276,001,2026-04-03_11h04.21.768,DFv2,2026.1.1,MacIntel,61.34969325,,,,,,,,,,,,258.644,261.6426,0,37,37,9,1,10,ADVISED,easy,old,R,,,,,,,,,,,,,,,,,,,,,,,,,,,,,,,,,,,,,,,,,,,,,,,,,,,,,,,,,,,,,,,,,,
,053276,001,2026-04-03_11h04.21.768,DFv2,2026.1.1,MacIntel,61.34969325,,,,,,,,,,,,261.6436,264.6436,0,38,38,1,1,2,SOFTLY,easy,old,R,,,,,,,,,,,,,,,,,,,,,,,,,,,,,,,,,,,,,,,,,,,,,,,,,,,,,,,,,,,,,,,,,,
,053276,001,2026-04-03_11h04.21.768,DFv2,2026.1.1,MacIntel,61.34969325,,,,,,,,,,,,264.6449,267.6426,0,39,39,28,1,29,REMORSE,hard,old,R,,,,,,,,,,,,,,,,,,,,,,,,,,,,,,,,,,,,,,,,,,,,,,,,,,,,,,,,,,,,,,,,,,
,053276,001,2026-04-03_11h04.21.768,DFv2,2026.1.1,MacIntel,61.34969325,,,,,,,,,,,,267.6439,270.6435,0,40,40,36,1,37,AVARICE,hard,old,R,,,,,,,,,,,,,,,,,,,,,,,,,,,,,,,,,,,,,,,,,,,,,,,,,,,,,,,,,,,,,,,,,,
,053276,001,2026-04-03_11h04.21.768,DFv2,2026.1.1,MacIntel,61.34969325,,,,,,,,,,,,270.6445,273.6437,0,41,41,47,1,48,REBUKE,hard,old,R,,,,,,,,,,,,,,,,,,,,,,,,,,,,,,,,,,,,,,,,,,,,,,,,,,,,,,,,,,,,,,,,,,
,053276,001,2026-04-03_11h04.21.768,DFv2,2026.1.1,MacIntel,61.34969325,,,,,,,,,,,,273.6449,276.6425,0,42,42,3,1,4,RIDING,easy,old,R,,,,,,,,,,,,,,,,,,,,,,,,,,,,,,,,,,,,,,,,,,,,,,,,,,,,,,,,,,,,,,,,,,
,053276,001,2026-04-03_11h04.21.768,DFv2,2026.1.1,MacIntel,61.34969325,,,,,,,,,,,,276.6437,279.6435,0,43,43,27,1,28,REFUTE,hard,old,F,,,,,,,,,,,,,,,,,,,,,,,,,,,,,,,,,,,,,,,,,,,,,,,,,,,,,,,,,,,,,,,,,,
,053276,001,2026-04-03_11h04.21.768,DFv2,2026.1.1,MacIntel,61.34969325,,,,,,,,,,,,279.645,282.6437,0,44,44,40,1,41,LIBEL,hard,old,R,,,,,,,,,,,,,,,,,,,,,,,,,,,,,,,,,,,,,,,,,,,,,,,,,,,,,,,,,,,,,,,,,,
,053276,001,2026-04-03_11h04.21.768,DFv2,2026.1.1,MacIntel,61.34969325,,,,,,,,,,,,282.6451,285.6436,0,45,45,5,1,6,POETIC,easy,old,R,,,,,,,,,,,,,,,,,,,,,,,,,,,,,,,,,,,,,,,,,,,,,,,,,,,,,,,,,,,,,,,,,,
,053276,001,2026-04-03_11h04.21.768,DFv2,2026.1.1,MacIntel,61.34969325,,,,,,,,,,,,285.6448,288.6436,0,46,46,38,1,39,EPITOME,hard,old,R,,,,,,,,,,,,,,,,,,,,,,,,,,,,,,,,,,,,,,,,,,,,,,,,,,,,,,,,,,,,,,,,,,
,053276,001,2026-04-03_11h04.21.768,DFv2,2026.1.1,MacIntel,61.34969325,,,,,,,,,,,,288.6448,291.6437,0,47,47,15,1,16,REGION,easy,old,R,,,,,,,,,,,,,,,,,,,,,,,,,,,,,,,,,,,,,,,,,,,,,,,,,,,,,,,,,,,,,,,,,,
,053276,001,2026-04-03_11h04.21.768,DFv2,2026.1.1,MacIntel,61.34969325,,,,,,,,,,,,,,,,,,,,,,,,291.6612,412.7614,space,121.0762,,,,,,,,,,,,,,,,,,,,,,,,,,,,,,,,,,,,,,,,,,,,,,,,,,,,,,,,,,,,,,
,053276,001,2026-04-03_11h04.21.768,DFv2,2026.1.1,MacIntel,61.34969325,,,,,,,,,,,,,,,,,,,86,LAMENT,hard,,,,,,,,412.7719,415.561,m,2.2545,,0,0,0,85,1,1,,,,,,,,,,,,,,,,,,,,,,,,,,,,,,,,,,,,,,,,,,,,,,,,,,
,053276,001,2026-04-03_11h04.21.768,DFv2,2026.1.1,MacIntel,61.34969325,,,,,,,,,,,,,,,,,,,78,DEPLORE,hard,,,,,,,,415.5625,417.8275,m,1.733,,0,1,1,77,1,1,,,,,,,,,,,,,,,,,,,,,,,,,,,,,,,,,,,,,,,,,,,,,,,,,,
,053276,001,2026-04-03_11h04.21.768,DFv2,2026.1.1,MacIntel,61.34969325,,,,,,,,,,,,,,,,,,,19,BRANCH,easy,,,,,,,,417.829,419.3108,m,0.944,,0,2,2,18,1,33,,,,,,,,,,,,,,,,,,,,,,,,,,,,,,,,,,,,,,,,,,,,,,,,,,
,053276,001,2026-04-03_11h04.21.768,DFv2,2026.1.1,MacIntel,61.34969325,,,,,,,,,,,,,,,,,,,54,SPEECH,easy,,,,,,,,419.3119,420.9441,m,1.1081,,0,3,3,53,1,61,,,,,,,,,,,,,,,,,,,,,,,,,,,,,,,,,,,,,,,,,,,,,,,,,,
,053276,001,2026-04-03_11h04.21.768,DFv2,2026.1.1,MacIntel,61.34969325,,,,,,,,,,,,,,,,,,,85,INSIPID,hard,,,,,,,,420.9449,423.5775,m,2.0938,,0,4,4,84,1,1,,,,,,,,,,,,,,,,,,,,,,,,,,,,,,,,,,,,,,,,,,,,,,,,,,
,053276,001,2026-04-03_11h04.21.768,DFv2,2026.1.1,MacIntel,61.34969325,,,,,,,,,,,,,,,,,,,10,ADVISED,easy,,,,,,,,423.5786,424.9272,m,0.8223,,0,5,5,9,1,33,,,,,,,,,,,,,,,,,,,,,,,,,,,,,,,,,,,,,,,,,,,,,,,,,,
,053276,001,2026-04-03_11h04.21.768,DFv2,2026.1.1,MacIntel,61.34969325,,,,,,,,,,,,,,,,,,,75,ASTUTE,hard,,,,,,,,424.9275,426.2441,m,0.7854,,0,6,6,74,1,1,,,,,,,,,,,,,,,,,,,,,,,,,,,,,,,,,,,,,,,,,,,,,,,,,,
,053276,001,2026-04-03_11h04.21.768,DFv2,2026.1.1,MacIntel,61.34969325,,,,,,,,,,,,,,,,,,,34,AMIABLE,hard,,,,,,,,426.245,427.6777,m,0.9021,,0,7,7,33,1,2,,,,,,,,,,,,,,,,,,,,,,,,,,,,,,,,,,,,,,,,,,,,,,,,,,
,053276,001,2026-04-03_11h04.21.768,DFv2,2026.1.1,MacIntel,61.34969325,,,,,,,,,,,,,,,,,,,53,QUEEN,easy,,,,,,,,427.679,428.9775,m,0.762,,0,8,8,52,1,41,,,,,,,,,,,,,,,,,,,,,,,,,,,,,,,,,,,,,,,,,,,,,,,,,,
,053276,001,2026-04-03_11h04.21.768,DFv2,2026.1.1,MacIntel,61.34969325,,,,,,,,,,,,,,,,,,,41,LIBEL,hard,,,,,,,,428.9785,430.1441,m,0.6292,,0,9,9,40,1,2,,,,,,,,,,,,,,,,,,,,,,,,,,,,,,,,,,,,,,,,,,,,,,,,,,
,053276,001,2026-04-03_11h04.21.768,DFv2,2026.1.1,MacIntel,61.34969325,,,,,,,,,,,,,,,,,,,83,GARNER,hard,,,,,,,,430.1451,431.3775,m,0.6977,,0,10,10,82,1,1,,,,,,,,,,,,,,,,,,,,,,,,,,,,,,,,,,,,,,,,,,,,,,,,,,
,053276,001,2026-04-03_11h04.21.768,DFv2,2026.1.1,MacIntel,61.34969325,,,,,,,,,,,,,,,,,,,16,REGION,easy,,,,,,,,431.3784,432.6941,m,0.7847,,0,11,11,15,1,76,,,,,,,,,,,,,,,,,,,,,,,,,,,,,,,,,,,,,,,,,,,,,,,,,,
,053276,001,2026-04-03_11h04.21.768,DFv2,2026.1.1,MacIntel,61.34969325,,,,,,,,,,,,,,,,,,,24,LEADING,easy,,,,,,,,432.6951,434.4105,m,1.1895,,0,12,12,23,1,68,,,,,,,,,,,,,,,,,,,,,,,,,,,,,,,,,,,,,,,,,,,,,,,,,,
,053276,001,2026-04-03_11h04.21.768,DFv2,2026.1.1,MacIntel,61.34969325,,,,,,,,,,,,,,,,,,,52,SOMEHOW,easy,,,,,,,,434.411,435.9273,m,1.0071,,0,13,13,51,1,72,,,,,,,,,,,,,,,,,,,,,,,,,,,,,,,,,,,,,,,,,,,,,,,,,,
,053276,001,2026-04-03_11h04.21.768,DFv2,2026.1.1,MacIntel,61.34969325,,,,,,,,,,,,,,,,,,,71,GUARD,easy,,,,,,,,435.9282,446.0608,m,9.5998,,0,14,14,70,1,48,,,,,,,,,,,,,,,,,,,,,,,,,,,,,,,,,,,,,,,,,,,,,,,,,,
,053276,001,2026-04-03_11h04.21.768,DFv2,2026.1.1,MacIntel,61.34969325,,,,,,,,,,,,,,,,,,,6,POETIC,easy,,,,,,,,446.0619,447.3609,m,0.7658,,0,15,15,5,1,31,,,,,,,,,,,,,,,,,,,,,,,,,,,,,,,,,,,,,,,,,,,,,,,,,,
,053276,001,2026-04-03_11h04.21.768,DFv2,2026.1.1,MacIntel,61.34969325,,,,,,,,,,,,,,,,,,,40,INEPT,hard,,,,,,,,447.3621,448.961,m,1.0688,,0,16,16,39,1,2,,,,,,,,,,,,,,,,,,,,,,,,,,,,,,,,,,,,,,,,,,,,,,,,,,
,053276,001,2026-04-03_11h04.21.768,DFv2,2026.1.1,MacIntel,61.34969325,,,,,,,,,,,,,,,,,,,59,THREW,easy,,,,,,,,448.9621,450.3942,m,0.8963,,0,17,17,58,1,46,,,,,,,,,,,,,,,,,,,,,,,,,,,,,,,,,,,,,,,,,,,,,,,,,,
,053276,001,2026-04-03_11h04.21.768,DFv2,2026.1.1,MacIntel,61.34969325,,,,,,,,,,,,,,,,,,,22,ENTER,easy,,,,,,,,450.3953,451.7104,m,0.7839,,0,18,18,21,1,78,,,,,,,,,,,,,,,,,,,,,,,,,,,,,,,,,,,,,,,,,,,,,,,,,,
,053276,001,2026-04-03_11h04.21.768,DFv2,2026.1.1,MacIntel,61.34969325,,,,,,,,,,,,,,,,,,,14,GRAVE,easy,,,,,,,,451.7114,453.0109,m,0.7683,,0,19,19,13,1,33,,,,,,,,,,,,,,,,,,,,,,,,,,,,,,,,,,,,,,,,,,,,,,,,,,
,053276,001,2026-04-03_11h04.21.768,DFv2,2026.1.1,MacIntel,61.34969325,,,,,,,,,,,,,,,,,,,36,APPEASE,hard,,,,,,,,453.0119,454.1942,m,0.6513,,0,20,20,35,1,2,,,,,,,,,,,,,,,,,,,,,,,,,,,,,,,,,,,,,,,,,,,,,,,,,,
,053276,001,2026-04-03_11h04.21.768,DFv2,2026.1.1,MacIntel,61.34969325,,,,,,,,,,,,,,,,,,,42,MOLLIFY,hard,,,,,,,,454.1952,455.6109,m,0.8827,,0,21,21,41,1,2,,,,,,,,,,,,,,,,,,,,,,,,,,,,,,,,,,,,,,,,,,,,,,,,,,
,053276,001,2026-04-03_11h04.21.768,DFv2,2026.1.1,MacIntel,61.34969325,,,,,,,,,,,,,,,,,,,26,PUERILE,hard,,,,,,,,455.6118,456.977,m,0.8277,,0,22,22,25,1,1,,,,,,,,,,,,,,,,,,,,,,,,,,,,,,,,,,,,,,,,,,,,,,,,,,
,053276,001,2026-04-03_11h04.21.768,DFv2,2026.1.1,MacIntel,61.34969325,,,,,,,,,,,,,,,,,,,82,FICKLE,hard,,,,,,,,456.9783,458.0276,m,0.5295,,0,23,23,81,1,1,,,,,,,,,,,,,,,,,,,,,,,,,,,,,,,,,,,,,,,,,,,,,,,,,,
,053276,001,2026-04-03_11h04.21.768,DFv2,2026.1.1,MacIntel,61.34969325,,,,,,,,,,,,,,,,,,,23,DECLINE,easy,,,,,,,,458.0285,459.2111,m,0.6472,,0,24,24,22,1,31,,,,,,,,,,,,,,,,,,,,,,,,,,,,,,,,,,,,,,,,,,,,,,,,,,
,053276,001,2026-04-03_11h04.21.768,DFv2,2026.1.1,MacIntel,61.34969325,,,,,,,,,,,,,,,,,,,74,AMPLIFY,hard,,,,,,,,459.212,460.8276,m,1.0804,,0,25,25,73,1,1,,,,,,,,,,,,,,,,,,,,,,,,,,,,,,,,,,,,,,,,,,,,,,,,,,
,053276,001,2026-04-03_11h04.21.768,DFv2,2026.1.1,MacIntel,61.34969325,,,,,,,,,,,,,,,,,,,1,LEADER,easy,,,,,,,,460.8285,462.194,m,0.8393,,0,26,26,0,1,74,,,,,,,,,,,,,,,,,,,,,,,,,,,,,,,,,,,,,,,,,,,,,,,,,,
,053276,001,2026-04-03_11h04.21.768,DFv2,2026.1.1,MacIntel,61.34969325,,,,,,,,,,,,,,,,,,,33,TORPID,hard,,,,,,,,462.1947,463.3776,m,0.6463,,0,27,27,32,1,1,,,,,,,,,,,,,,,,,,,,,,,,,,,,,,,,,,,,,,,,,,,,,,,,,,
,053276,001,2026-04-03_11h04.21.768,DFv2,2026.1.1,MacIntel,61.34969325,,,,,,,,,,,,,,,,,,,64,EXAMINE,easy,,,,,,,,463.3787,465.0609,m,1.1477,,0,28,28,63,1,33,,,,,,,,,,,,,,,,,,,,,,,,,,,,,,,,,,,,,,,,,,,,,,,,,,
,053276,001,2026-04-03_11h04.21.768,DFv2,2026.1.1,MacIntel,61.34969325,,,,,,,,,,,,,,,,,,,66,RURAL,easy,,,,,,,,465.0621,466.2444,m,0.6503,,0,29,29,65,1,54,,,,,,,,,,,,,,,,,,,,,,,,,,,,,,,,,,,,,,,,,,,,,,,,,,
,053276,001,2026-04-03_11h04.21.768,DFv2,2026.1.1,MacIntel,61.34969325,,,,,,,,,,,,,,,,,,,25,PROFANE,hard,,,,,,,,466.2456,467.3766,m,0.5954,,0,30,30,24,1,1,,,,,,,,,,,,,,,,,,,,,,,,,,,,,,,,,,,,,,,,,,,,,,,,,,
,053276,001,2026-04-03_11h04.21.768,DFv2,2026.1.1,MacIntel,61.34969325,,,,,,,,,,,,,,,,,,,91,OPULENT,hard,,,,,,,,467.3775,468.4943,m,0.5979,,0,31,31,90,1,1,,,,,,,,,,,,,,,,,,,,,,,,,,,,,,,,,,,,,,,,,,,,,,,,,,
,053276,001,2026-04-03_11h04.21.768,DFv2,2026.1.1,MacIntel,61.34969325,,,,,,,,,,,,,,,,,,,12,BELIEF,easy,,,,,,,,468.4953,469.4766,m,0.4463,,0,32,32,11,1,64,,,,,,,,,,,,,,,,,,,,,,,,,,,,,,,,,,,,,,,,,,,,,,,,,,
,053276,001,2026-04-03_11h04.21.768,DFv2,2026.1.1,MacIntel,61.34969325,,,,,,,,,,,,,,,,,,,90,NUANCE,hard,,,,,,,,469.4776,470.46,m,0.4477,,0,33,33,89,1,1,,,,,,,,,,,,,,,,,,,,,,,,,,,,,,,,,,,,,,,,,,,,,,,,,,
,053276,001,2026-04-03_11h04.21.768,DFv2,2026.1.1,MacIntel,61.34969325,,,,,,,,,,,,,,,,,,,69,FICTION,easy,,,,,,,,470.4609,471.3597,m,0.3854,,0,34,34,68,1,46,,,,,,,,,,,,,,,,,,,,,,,,,,,,,,,,,,,,,,,,,,,,,,,,,,
,053276,001,2026-04-03_11h04.21.768,DFv2,2026.1.1,MacIntel,61.34969325,,,,,,,,,,,,,,,,,,,8,SERVING,easy,,,,,,,,471.3604,472.5933,m,0.7184,,0,35,35,7,1,38,,,,,,,,,,,,,,,,,,,,,,,,,,,,,,,,,,,,,,,,,,,,,,,,,,
,053276,001,2026-04-03_11h04.21.768,DFv2,2026.1.1,MacIntel,61.34969325,,,,,,,,,,,,,,,,,,,15,EMPTY,easy,,,,,,,,472.5941,474.1099,m,0.9993,,0,36,36,14,1,64,,,,,,,,,,,,,,,,,,,,,,,,,,,,,,,,,,,,,,,,,,,,,,,,,,
,053276,001,2026-04-03_11h04.21.768,DFv2,2026.1.1,MacIntel,61.34969325,,,,,,,,,,,,,,,,,,,95,PENSIVE,hard,,,,,,,,474.1108,475.2776,m,0.6501,,0,37,37,94,1,1,,,,,,,,,,,,,,,,,,,,,,,,,,,,,,,,,,,,,,,,,,,,,,,,,,
,053276,001,2026-04-03_11h04.21.768,DFv2,2026.1.1,MacIntel,61.34969325,,,,,,,,,,,,,,,,,,,89,NASCENT,hard,,,,,,,,475.2787,476.4944,m,0.6776,,0,38,38,88,1,1,,,,,,,,,,,,,,,,,,,,,,,,,,,,,,,,,,,,,,,,,,,,,,,,,,
,053276,001,2026-04-03_11h04.21.768,DFv2,2026.1.1,MacIntel,61.34969325,,,,,,,,,,,,,,,,,,,18,FLIGHT,easy,,,,,,,,476.4952,477.6444,m,0.6111,,0,39,39,17,1,46,,,,,,,,,,,,,,,,,,,,,,,,,,,,,,,,,,,,,,,,,,,,,,,,,,
,053276,001,2026-04-03_11h04.21.768,DFv2,2026.1.1,MacIntel,61.34969325,,,,,,,,,,,,,,,,,,,96,PROBITY,hard,,,,,,,,477.6453,478.5774,m,0.4085,,0,40,40,95,1,,,,,,,,,,,,,,,,,,,,,,,,,,,,,,,,,,,,,,,,,,,,,,,,,,,
,053276,001,2026-04-03_11h04.21.768,DFv2,2026.1.1,MacIntel,61.34969325,,,,,,,,,,,,,,,,,,,67,CULTURE,easy,,,,,,,,478.5781,479.5607,m,0.4523,,0,41,41,66,1,58,,,,,,,,,,,,,,,,,,,,,,,,,,,,,,,,,,,,,,,,,,,,,,,,,,
,053276,001,2026-04-03_11h04.21.768,DFv2,2026.1.1,MacIntel,61.34969325,,,,,,,,,,,,,,,,,,,21,SHOCK,easy,,,,,,,,479.5613,480.4778,m,0.3823,,0,42,42,20,1,31,,,,,,,,,,,,,,,,,,,,,,,,,,,,,,,,,,,,,,,,,,,,,,,,,,
,053276,001,2026-04-03_11h04.21.768,DFv2,2026.1.1,MacIntel,61.34969325,,,,,,,,,,,,,,,,,,,65,SUPPER,easy,,,,,,,,480.4788,481.4107,m,0.3987,,0,43,43,64,1,37,,,,,,,,,,,,,,,,,,,,,,,,,,,,,,,,,,,,,,,,,,,,,,,,,,
,053276,001,2026-04-03_11h04.21.768,DFv2,2026.1.1,MacIntel,61.34969325,,,,,,,,,,,,,,,,,,,11,ANGRY,easy,,,,,,,,481.4115,482.5776,m,0.63,,0,44,44,10,1,45,,,,,,,,,,,,,,,,,,,,,,,,,,,,,,,,,,,,,,,,,,,,,,,,,,
,053276,001,2026-04-03_11h04.21.768,DFv2,2026.1.1,MacIntel,61.34969325,,,,,,,,,,,,,,,,,,,9,SOLDIER,easy,,,,,,,,482.5785,483.6433,m,0.5292,,0,45,45,8,1,39,,,,,,,,,,,,,,,,,,,,,,,,,,,,,,,,,,,,,,,,,,,,,,,,,,
,053276,001,2026-04-03_11h04.21.768,DFv2,2026.1.1,MacIntel,61.34969325,,,,,,,,,,,,,,,,,,,77,COPIOUS,hard,,,,,,,,483.6442,484.91,m,0.7469,,0,46,46,76,1,1,,,,,,,,,,,,,,,,,,,,,,,,,,,,,,,,,,,,,,,,,,,,,,,,,,
,053276,001,2026-04-03_11h04.21.768,DFv2,2026.1.1,MacIntel,61.34969325,,,,,,,,,,,,,,,,,,,79,DETER,hard,,,,,,,,484.911,485.8609,m,0.4279,,0,47,47,78,1,1,,,,,,,,,,,,,,,,,,,,,,,,,,,,,,,,,,,,,,,,,,,,,,,,,,
,053276,001,2026-04-03_11h04.21.768,DFv2,2026.1.1,MacIntel,61.34969325,,,,,,,,,,,,,,,,,,,32,SQUALID,hard,,,,,,,,485.8619,486.8277,m,0.4322,,0,48,48,31,1,1,,,,,,,,,,,,,,,,,,,,,,,,,,,,,,,,,,,,,,,,,,,,,,,,,,
,053276,001,2026-04-03_11h04.21.768,DFv2,2026.1.1,MacIntel,61.34969325,,,,,,,,,,,,,,,,,,,72,WAGON,easy,,,,,,,,486.8287,487.9943,m,0.6309,,0,49,49,71,1,1,,,,,,,,,,,,,,,,,,,,,,,,,,,,,,,,,,,,,,,,,,,,,,,,,,
,053276,001,2026-04-03_11h04.21.768,DFv2,2026.1.1,MacIntel,61.34969325,,,,,,,,,,,,,,,,,,,28,REFUTE,hard,,,,,,,,487.9955,489.9445,m,1.4118,,0,50,50,27,1,1,,,,,,,,,,,,,,,,,,,,,,,,,,,,,,,,,,,,,,,,,,,,,,,,,,
,053276,001,2026-04-03_11h04.21.768,DFv2,2026.1.1,MacIntel,61.34969325,,,,,,,,,,,,,,,,,,,57,COATING,easy,,,,,,,,489.9456,491.0943,m,0.6065,,0,51,51,56,1,36,,,,,,,,,,,,,,,,,,,,,,,,,,,,,,,,,,,,,,,,,,,,,,,,,,
,053276,001,2026-04-03_11h04.21.768,DFv2,2026.1.1,MacIntel,61.34969325,,,,,,,,,,,,,,,,,,,55,COOLING,easy,,,,,,,,491.0953,492.2271,m,0.6024,,0,52,52,54,1,41,,,,,,,,,,,,,,,,,,,,,,,,,,,,,,,,,,,,,,,,,,,,,,,,,,
,053276,001,2026-04-03_11h04.21.768,DFv2,2026.1.1,MacIntel,61.34969325,,,,,,,,,,,,,,,,,,,27,RATIFY,hard,,,,,,,,492.2278,493.1944,m,0.4464,,0,53,53,26,1,1,,,,,,,,,,,,,,,,,,,,,,,,,,,,,,,,,,,,,,,,,,,,,,,,,,
,053276,001,2026-04-03_11h04.21.768,DFv2,2026.1.1,MacIntel,61.34969325,,,,,,,,,,,,,,,,,,,60,LIBERTY,easy,,,,,,,,493.1953,494.2443,m,0.515,,0,54,54,59,1,46,,,,,,,,,,,,,,,,,,,,,,,,,,,,,,,,,,,,,,,,,,,,,,,,,,
,053276,001,2026-04-03_11h04.21.768,DFv2,2026.1.1,MacIntel,61.34969325,,,,,,,,,,,,,,,,,,,94,PAUCITY,hard,,,,,,,,494.2453,495.3278,m,0.5458,,0,55,55,93,1,1,,,,,,,,,,,,,,,,,,,,,,,,,,,,,,,,,,,,,,,,,,,,,,,,,,
,053276,001,2026-04-03_11h04.21.768,DFv2,2026.1.1,MacIntel,61.34969325,,,,,,,,,,,,,,,,,,,62,MASTER,easy,,,,,,,,495.3289,496.3778,m,0.5155,,0,56,56,61,1,72,,,,,,,,,,,,,,,,,,,,,,,,,,,,,,,,,,,,,,,,,,,,,,,,,,
,053276,001,2026-04-03_11h04.21.768,DFv2,2026.1.1,MacIntel,61.34969325,,,,,,,,,,,,,,,,,,,92,ORNATE,hard,,,,,,,,496.3788,497.8278,m,0.9135,,0,57,57,91,1,1,,,,,,,,,,,,,,,,,,,,,,,,,,,,,,,,,,,,,,,,,,,,,,,,,,
,053276,001,2026-04-03_11h04.21.768,DFv2,2026.1.1,MacIntel,61.34969325,,,,,,,,,,,,,,,,,,,20,BURNING,easy,,,,,,,,497.829,498.9768,m,0.6134,,0,58,58,19,1,50,,,,,,,,,,,,,,,,,,,,,,,,,,,,,,,,,,,,,,,,,,,,,,,,,,
,053276,001,2026-04-03_11h04.21.768,DFv2,2026.1.1,MacIntel,61.34969325,,,,,,,,,,,,,,,,,,,93,PATHOS,hard,,,,,,,,498.9778,500.1278,m,0.6288,,0,59,59,92,1,1,,,,,,,,,,,,,,,,,,,,,,,,,,,,,,,,,,,,,,,,,,,,,,,,,,
,053276,001,2026-04-03_11h04.21.768,DFv2,2026.1.1,MacIntel,61.34969325,,,,,,,,,,,,,,,,,,,13,WEATHER,easy,,,,,,,,500.1289,501.361,m,0.6968,,0,60,60,12,1,69,,,,,,,,,,,,,,,,,,,,,,,,,,,,,,,,,,,,,,,,,,,,,,,,,,
,053276,001,2026-04-03_11h04.21.768,DFv2,2026.1.1,MacIntel,61.34969325,,,,,,,,,,,,,,,,,,,76,CANDOR,hard,,,,,,,,501.362,502.3434,m,0.4465,,0,61,61,75,1,1,,,,,,,,,,,,,,,,,,,,,,,,,,,,,,,,,,,,,,,,,,,,,,,,,,
,053276,001,2026-04-03_11h04.21.768,DFv2,2026.1.1,MacIntel,61.34969325,,,,,,,,,,,,,,,,,,,48,REBUKE,hard,,,,,,,,502.3444,503.411,m,0.5487,,0,62,62,47,1,2,,,,,,,,,,,,,,,,,,,,,,,,,,,,,,,,,,,,,,,,,,,,,,,,,,
,053276,001,2026-04-03_11h04.21.768,DFv2,2026.1.1,MacIntel,61.34969325,,,,,,,,,,,,,,,,,,,31,SEMINAL,hard,,,,,,,,503.4118,504.4278,m,0.4817,,0,63,63,30,1,1,,,,,,,,,,,,,,,,,,,,,,,,,,,,,,,,,,,,,,,,,,,,,,,,,,
,053276,001,2026-04-03_11h04.21.768,DFv2,2026.1.1,MacIntel,61.34969325,,,,,,,,,,,,,,,,,,,29,REMORSE,hard,,,,,,,,504.4288,505.6111,m,0.6457,,0,64,64,28,1,1,,,,,,,,,,,,,,,,,,,,,,,,,,,,,,,,,,,,,,,,,,,,,,,,,,
,053276,001,2026-04-03_11h04.21.768,DFv2,2026.1.1,MacIntel,61.34969325,,,,,,,,,,,,,,,,,,,39,EPITOME,hard,,,,,,,,505.6124,506.5612,m,0.4121,,0,65,65,38,1,2,,,,,,,,,,,,,,,,,,,,,,,,,,,,,,,,,,,,,,,,,,,,,,,,,,
,053276,001,2026-04-03_11h04.21.768,DFv2,2026.1.1,MacIntel,61.34969325,,,,,,,,,,,,,,,,,,,70,SWITCH,easy,,,,,,,,506.5623,507.5277,m,0.4315,,0,66,66,69,1,43,,,,,,,,,,,,,,,,,,,,,,,,,,,,,,,,,,,,,,,,,,,,,,,,,,
,053276,001,2026-04-03_11h04.21.768,DFv2,2026.1.1,MacIntel,61.34969325,,,,,,,,,,,,,,,,,,,5,PARTNER,easy,,,,,,,,507.5288,508.5944,m,0.5311,,0,67,67,4,1,32,,,,,,,,,,,,,,,,,,,,,,,,,,,,,,,,,,,,,,,,,,,,,,,,,,
,053276,001,2026-04-03_11h04.21.768,DFv2,2026.1.1,MacIntel,61.34969325,,,,,,,,,,,,,,,,,,,37,AVARICE,hard,,,,,,,,508.5953,509.761,m,0.631,,0,68,68,36,1,2,,,,,,,,,,,,,,,,,,,,,,,,,,,,,,,,,,,,,,,,,,,,,,,,,,
,053276,001,2026-04-03_11h04.21.768,DFv2,2026.1.1,MacIntel,61.34969325,,,,,,,,,,,,,,,,,,,45,PROFUSE,hard,,,,,,,,509.762,510.8435,m,0.5464,,0,69,69,44,1,2,,,,,,,,,,,,,,,,,,,,,,,,,,,,,,,,,,,,,,,,,,,,,,,,,,
,053276,001,2026-04-03_11h04.21.768,DFv2,2026.1.1,MacIntel,61.34969325,,,,,,,,,,,,,,,,,,,47,PRUDENT,hard,,,,,,,,510.8445,511.9277,m,0.5464,,0,70,70,46,1,2,,,,,,,,,,,,,,,,,,,,,,,,,,,,,,,,,,,,,,,,,,,,,,,,,,
,053276,001,2026-04-03_11h04.21.768,DFv2,2026.1.1,MacIntel,61.34969325,,,,,,,,,,,,,,,,,,,51,ASSUME,easy,,,,,,,,511.9289,512.8945,m,0.4313,,0,71,71,50,1,63,,,,,,,,,,,,,,,,,,,,,,,,,,,,,,,,,,,,,,,,,,,,,,,,,,
,053276,001,2026-04-03_11h04.21.768,DFv2,2026.1.1,MacIntel,61.34969325,,,,,,,,,,,,,,,,,,,84,INANE,hard,,,,,,,,512.8955,513.9778,m,0.5474,,0,72,72,83,1,1,,,,,,,,,,,,,,,,,,,,,,,,,,,,,,,,,,,,,,,,,,,,,,,,,,
,053276,001,2026-04-03_11h04.21.768,DFv2,2026.1.1,MacIntel,61.34969325,,,,,,,,,,,,,,,,,,,3,ADDRESS,easy,,,,,,,,513.9788,514.9779,m,0.4604,,0,73,73,2,1,77,,,,,,,,,,,,,,,,,,,,,,,,,,,,,,,,,,,,,,,,,,,,,,,,,,
,053276,001,2026-04-03_11h04.21.768,DFv2,2026.1.1,MacIntel,61.34969325,,,,,,,,,,,,,,,,,,,81,ESCHEW,hard,,,,,,,,514.9788,516.0778,m,0.5637,,0,74,74,80,1,1,,,,,,,,,,,,,,,,,,,,,,,,,,,,,,,,,,,,,,,,,,,,,,,,,,
,053276,001,2026-04-03_11h04.21.768,DFv2,2026.1.1,MacIntel,61.34969325,,,,,,,,,,,,,,,,,,,38,COERCE,hard,,,,,,,,516.0789,517.1778,m,0.567,,0,75,75,37,1,2,,,,,,,,,,,,,,,,,,,,,,,,,,,,,,,,,,,,,,,,,,,,,,,,,,
,053276,001,2026-04-03_11h04.21.768,DFv2,2026.1.1,MacIntel,61.34969325,,,,,,,,,,,,,,,,,,,58,LISTEN,easy,,,,,,,,517.1788,517.8611,m,0.1518,,0,76,76,57,1,51,,,,,,,,,,,,,,,,,,,,,,,,,,,,,,,,,,,,,,,,,,,,,,,,,,
,053276,001,2026-04-03_11h04.21.768,DFv2,2026.1.1,MacIntel,61.34969325,,,,,,,,,,,,,,,,,,,35,BANAL,hard,,,,,,,,517.8622,519.1612,m,0.7639,,0,77,77,34,1,2,,,,,,,,,,,,,,,,,,,,,,,,,,,,,,,,,,,,,,,,,,,,,,,,,,
,053276,001,2026-04-03_11h04.21.768,DFv2,2026.1.1,MacIntel,61.34969325,,,,,,,,,,,,,,,,,,,49,DEPTH,easy,,,,,,,,519.1622,520.7446,m,1.05,,0,78,78,48,1,53,,,,,,,,,,,,,,,,,,,,,,,,,,,,,,,,,,,,,,,,,,,,,,,,,,
,053276,001,2026-04-03_11h04.21.768,DFv2,2026.1.1,MacIntel,61.34969325,,,,,,,,,,,,,,,,,,,7,SLIGHT,easy,,,,,,,,520.7456,521.8445,m,0.5636,,0,79,79,6,1,53,,,,,,,,,,,,,,,,,,,,,,,,,,,,,,,,,,,,,,,,,,,,,,,,,,
,053276,001,2026-04-03_11h04.21.768,DFv2,2026.1.1,MacIntel,61.34969325,,,,,,,,,,,,,,,,,,,68,MOTION,easy,,,,,,,,521.8455,522.7942,m,0.4159,,0,80,80,67,1,55,,,,,,,,,,,,,,,,,,,,,,,,,,,,,,,,,,,,,,,,,,,,,,,,,,
,053276,001,2026-04-03_11h04.21.768,DFv2,2026.1.1,MacIntel,61.34969325,,,,,,,,,,,,,,,,,,,50,CLOSER,easy,,,,,,,,522.7951,523.7778,m,0.446,,0,81,81,49,1,61,,,,,,,,,,,,,,,,,,,,,,,,,,,,,,,,,,,,,,,,,,,,,,,,,,
,053276,001,2026-04-03_11h04.21.768,DFv2,2026.1.1,MacIntel,61.34969325,,,,,,,,,,,,,,,,,,,73,AFFABLE,hard,,,,,,,,523.7788,524.6945,m,0.3826,,0,82,82,72,1,1,,,,,,,,,,,,,,,,,,,,,,,,,,,,,,,,,,,,,,,,,,,,,,,,,,
,053276,001,2026-04-03_11h04.21.768,DFv2,2026.1.1,MacIntel,61.34969325,,,,,,,,,,,,,,,,,,,30,REPLETE,hard,,,,,,,,524.6954,525.6269,m,0.3941,,0,83,83,29,1,1,,,,,,,,,,,,,,,,,,,,,,,,,,,,,,,,,,,,,,,,,,,,,,,,,,
,053276,001,2026-04-03_11h04.21.768,DFv2,2026.1.1,MacIntel,61.34969325,,,,,,,,,,,,,,,,,,,43,PACIFY,hard,,,,,,,,525.6279,526.6111,m,0.464,,0,84,84,42,1,2,,,,,,,,,,,,,,,,,,,,,,,,,,,,,,,,,,,,,,,,,,,,,,,,,,
,053276,001,2026-04-03_11h04.21.768,DFv2,2026.1.1,MacIntel,61.34969325,,,,,,,,,,,,,,,,,,,2,SOFTLY,easy,,,,,,,,526.6122,527.8778,m,0.7312,,0,85,85,1,1,31,,,,,,,,,,,,,,,,,,,,,,,,,,,,,,,,,,,,,,,,,,,,,,,,,,
,053276,001,2026-04-03_11h04.21.768,DFv2,2026.1.1,MacIntel,61.34969325,,,,,,,,,,,,,,,,,,,80,ENMITY,hard,,,,,,,,527.8788,529.2269,m,0.8143,,0,86,86,79,1,1,,,,,,,,,,,,,,,,,,,,,,,,,,,,,,,,,,,,,,,,,,,,,,,,,,
,053276,001,2026-04-03_11h04.21.768,DFv2,2026.1.1,MacIntel,61.34969325,,,,,,,,,,,,,,,,,,,17,SUDDEN,easy,,,,,,,,529.2279,530.1437,m,0.3899,,0,87,87,16,1,38,,,,,,,,,,,,,,,,,,,,,,,,,,,,,,,,,,,,,,,,,,,,,,,,,,
,053276,001,2026-04-03_11h04.21.768,DFv2,2026.1.1,MacIntel,61.34969325,,,,,,,,,,,,,,,,,,,63,LEGAL,easy,,,,,,,,530.1444,531.0612,m,0.3963,,0,88,88,62,1,72,,,,,,,,,,,,,,,,,,,,,,,,,,,,,,,,,,,,,,,,,,,,,,,,,,
,053276,001,2026-04-03_11h04.21.768,DFv2,2026.1.1,MacIntel,61.34969325,,,,,,,,,,,,,,,,,,,56,FARTHER,easy,,,,,,,,531.0621,531.9944,m,0.3968,,0,89,89,55,1,32,,,,,,,,,,,,,,,,,,,,,,,,,,,,,,,,,,,,,,,,,,,,,,,,,,
,053276,001,2026-04-03_11h04.21.768,DFv2,2026.1.1,MacIntel,61.34969325,,,,,,,,,,,,,,,,,,,4,RIDING,easy,,,,,,,,531.9954,532.8603,m,0.3307,,0,90,90,3,1,45,,,,,,,,,,,,,,,,,,,,,,,,,,,,,,,,,,,,,,,,,,,,,,,,,,
,053276,001,2026-04-03_11h04.21.768,DFv2,2026.1.1,MacIntel,61.34969325,,,,,,,,,,,,,,,,,,,88,MYOPIC,hard,,,,,,,,532.8612,533.9613,m,0.5858,,0,91,91,87,1,1,,,,,,,,,,,,,,,,,,,,,,,,,,,,,,,,,,,,,,,,,,,,,,,,,,
,053276,001,2026-04-03_11h04.21.768,DFv2,2026.1.1,MacIntel,61.34969325,,,,,,,,,,,,,,,,,,,61,CUTTING,easy,,,,,,,,533.9626,534.8947,m,0.398,,0,92,92,60,1,66,,,,,,,,,,,,,,,,,,,,,,,,,,,,,,,,,,,,,,,,,,,,,,,,,,
,053276,001,2026-04-03_11h04.21.768,DFv2,2026.1.1,MacIntel,61.34969325,,,,,,,,,,,,,,,,,,,46,PROSAIC,hard,,,,,,,,534.8959,536.0111,m,0.5795,,0,93,93,45,1,2,,,,,,,,,,,,,,,,,,,,,,,,,,,,,,,,,,,,,,,,,,,,,,,,,,
,053276,001,2026-04-03_11h04.21.768,DFv2,2026.1.1,MacIntel,61.34969325,,,,,,,,,,,,,,,,,,,44,PARAGON,hard,,,,,,,,536.0121,536.9945,m,0.4471,,0,94,94,43,1,2,,,,,,,,,,,,,,,,,,,,,,,,,,,,,,,,,,,,,,,,,,,,,,,,,,
,053276,001,2026-04-03_11h04.21.768,DFv2,2026.1.1,MacIntel,61.34969325,,,,,,,,,,,,,,,,,,,87,LEVITY,hard,,,,,,,,536.9955,537.9769,m,0.4468,,0,95,95,86,1,1,,,,,,,,,,,,,,,,,,,,,,,,,,,,,,,,,,,,,,,,,,,,,,,,,,
,053276,001,2026-04-03_11h04.21.768,DFv2,2026.1.1,MacIntel,61.34969325,,,,,,,,,,,,,,,,,,,,,,,,,,,,,,,,,,,,,,,,537.9774,553.7789,,,,,,,,,,,,,,,,,,,,,,,,,,,,,,,,,,,,,,,,,,,,,,,,
,053276,001,2026-04-03_11h04.21.768,DFv2,2026.1.1,MacIntel,61.34969325,,,,,,,,,,,,,,,,,,,,,,,,,,,,,,,,,,,,,,,,,,553.7916,555.9448,n,2.1295,,0,0,0,18,1,19,Nora Ephron,Y,,,,,,,,,,,,,,,,,,,,,,,,,,,,,,,,,,,
,053276,001,2026-04-03_11h04.21.768,DFv2,2026.1.1,MacIntel,61.34969325,,,,,,,,,,,,,,,,,,,,,,,,,,,,,,,,,,,,,,,,,,555.9461,556.5438,n,0.5743,,0,1,1,17,1,18,Joyce Carol Oates,Y,,,,,,,,,,,,,,,,,,,,,,,,,,,,,,,,,,,
,053276,001,2026-04-03_11h04.21.768,DFv2,2026.1.1,MacIntel,61.34969325,,,,,,,,,,,,,,,,,,,,,,,,,,,,,,,,,,,,,,,,,,556.5448,557.261,n,0.7079,,0,2,2,25,1,26,Ralph Ellison,Y,,,,,,,,,,,,,,,,,,,,,,,,,,,,,,,,,,,
,053276,001,2026-04-03_11h04.21.768,DFv2,2026.1.1,MacIntel,61.34969325,,,,,,,,,,,,,,,,,,,,,,,,,,,,,,,,,,,,,,,,,,557.2617,557.7611,n,0.4941,,0,3,3,13,1,14,William Faulkner,Y,,,,,,,,,,,,,,,,,,,,,,,,,,,,,,,,,,,
,053276,001,2026-04-03_11h04.21.768,DFv2,2026.1.1,MacIntel,61.34969325,,,,,,,,,,,,,,,,,,,,,,,,,,,,,,,,,,,,,,,,,,557.7621,558.1768,n,0.4074,,0,4,4,62,1,63,Mimi Hall,N,,,,,,,,,,,,,,,,,,,,,,,,,,,,,,,,,,,
,053276,001,2026-04-03_11h04.21.768,DFv2,2026.1.1,MacIntel,61.34969325,,,,,,,,,,,,,,,,,,,,,,,,,,,,,,,,,,,,,,,,,,558.1777,558.5945,n,0.3973,,0,5,5,72,1,73,Mark Strauss,N,,,,,,,,,,,,,,,,,,,,,,,,,,,,,,,,,,,
,053276,001,2026-04-03_11h04.21.768,DFv2,2026.1.1,MacIntel,61.34969325,,,,,,,,,,,,,,,,,,,,,,,,,,,,,,,,,,,,,,,,,,558.5955,559.0779,n,0.475,,0,6,6,54,1,55,Jennifer Butterworth,N,,,,,,,,,,,,,,,,,,,,,,,,,,,,,,,,,,,
,053276,001,2026-04-03_11h04.21.768,DFv2,2026.1.1,MacIntel,61.34969325,,,,,,,,,,,,,,,,,,,,,,,,,,,,,,,,,,,,,,,,,,559.0787,559.5947,n,0.4976,,0,7,7,96,1,97,Sophia Martin,N,,,,,,,,,,,,,,,,,,,,,,,,,,,,,,,,,,,
,053276,001,2026-04-03_11h04.21.768,DFv2,2026.1.1,MacIntel,61.34969325,,,,,,,,,,,,,,,,,,,,,,,,,,,,,,,,,,,,,,,,,,559.5959,559.9103,n,0.2945,,0,8,8,60,1,61,Samuel Paige,N,,,,,,,,,,,,,,,,,,,,,,,,,,,,,,,,,,,
,053276,001,2026-04-03_11h04.21.768,DFv2,2026.1.1,MacIntel,61.34969325,,,,,,,,,,,,,,,,,,,,,,,,,,,,,,,,,,,,,,,,,,559.9113,560.7946,n,0.8696,,0,9,9,15,1,16,Ayn Rand,Y,,,,,,,,,,,,,,,,,,,,,,,,,,,,,,,,,,,
,053276,001,2026-04-03_11h04.21.768,DFv2,2026.1.1,MacIntel,61.34969325,,,,,,,,,,,,,,,,,,,,,,,,,,,,,,,,,,,,,,,,,,560.7956,561.3111,n,0.506,,0,10,10,22,1,23,Harper Lee,Y,,,,,,,,,,,,,,,,,,,,,,,,,,,,,,,,,,,
,053276,001,2026-04-03_11h04.21.768,DFv2,2026.1.1,MacIntel,61.34969325,,,,,,,,,,,,,,,,,,,,,,,,,,,,,,,,,,,,,,,,,,561.3121,562.0279,n,0.7037,,0,11,11,98,1,99,Susan Kormer,N,,,,,,,,,,,,,,,,,,,,,,,,,,,,,,,,,,,
,053276,001,2026-04-03_11h04.21.768,DFv2,2026.1.1,MacIntel,61.34969325,,,,,,,,,,,,,,,,,,,,,,,,,,,,,,,,,,,,,,,,,,562.0289,562.5947,n,0.5477,,0,12,12,44,1,45,Jack London,Y,,,,,,,,,,,,,,,,,,,,,,,,,,,,,,,,,,,
,053276,001,2026-04-03_11h04.21.768,DFv2,2026.1.1,MacIntel,61.34969325,,,,,,,,,,,,,,,,,,,,,,,,,,,,,,,,,,,,,,,,,,562.5958,563.1776,n,0.5629,,0,13,13,24,1,25,Isabel Allende,Y,,,,,,,,,,,,,,,,,,,,,,,,,,,,,,,,,,,
,053276,001,2026-04-03_11h04.21.768,DFv2,2026.1.1,MacIntel,61.34969325,,,,,,,,,,,,,,,,,,,,,,,,,,,,,,,,,,,,,,,,,,563.1786,563.9436,n,0.7461,,0,14,14,81,1,82,Hilda Borko,N,,,,,,,,,,,,,,,,,,,,,,,,,,,,,,,,,,,
,053276,001,2026-04-03_11h04.21.768,DFv2,2026.1.1,MacIntel,61.34969325,,,,,,,,,,,,,,,,,,,,,,,,,,,,,,,,,,,,,,,,,,563.9447,564.7947,n,0.8315,,0,15,15,90,1,91,Noah Whittington,N,,,,,,,,,,,,,,,,,,,,,,,,,,,,,,,,,,,
,053276,001,2026-04-03_11h04.21.768,DFv2,2026.1.1,MacIntel,61.34969325,,,,,,,,,,,,,,,,,,,,,,,,,,,,,,,,,,,,,,,,,,564.796,565.4613,n,0.6449,,0,16,16,85,1,86,Aimee Dorr,N,,,,,,,,,,,,,,,,,,,,,,,,,,,,,,,,,,,
,053276,001,2026-04-03_11h04.21.768,DFv2,2026.1.1,MacIntel,61.34969325,,,,,,,,,,,,,,,,,,,,,,,,,,,,,,,,,,,,,,,,,,565.4624,566.2279,n,0.7433,,0,17,17,34,1,35,Stephen King,Y,,,,,,,,,,,,,,,,,,,,,,,,,,,,,,,,,,,
,053276,001,2026-04-03_11h04.21.768,DFv2,2026.1.1,MacIntel,61.34969325,,,,,,,,,,,,,,,,,,,,,,,,,,,,,,,,,,,,,,,,,,566.2288,567.2781,n,1.031,,0,18,18,29,1,30,E.B. White,Y,,,,,,,,,,,,,,,,,,,,,,,,,,,,,,,,,,,
,053276,001,2026-04-03_11h04.21.768,DFv2,2026.1.1,MacIntel,61.34969325,,,,,,,,,,,,,,,,,,,,,,,,,,,,,,,,,,,,,,,,,,567.2791,567.9948,n,0.6968,,0,19,19,83,1,84,Charles Condie,N,,,,,,,,,,,,,,,,,,,,,,,,,,,,,,,,,,,
,053276,001,2026-04-03_11h04.21.768,DFv2,2026.1.1,MacIntel,61.34969325,,,,,,,,,,,,,,,,,,,,,,,,,,,,,,,,,,,,,,,,,,567.996,568.578,n,0.5616,,0,20,20,73,1,74,Lauren Adamson,N,,,,,,,,,,,,,,,,,,,,,,,,,,,,,,,,,,,
,053276,001,2026-04-03_11h04.21.768,DFv2,2026.1.1,MacIntel,61.34969325,,,,,,,,,,,,,,,,,,,,,,,,,,,,,,,,,,,,,,,,,,568.5792,569.2947,n,0.6958,,0,21,21,59,1,60,Robert Emery,N,,,,,,,,,,,,,,,,,,,,,,,,,,,,,,,,,,,
,053276,001,2026-04-03_11h04.21.768,DFv2,2026.1.1,MacIntel,61.34969325,,,,,,,,,,,,,,,,,,,,,,,,,,,,,,,,,,,,,,,,,,569.296,569.7947,n,0.4786,,0,22,22,40,1,41,Clive Cussler,Y,,,,,,,,,,,,,,,,,,,,,,,,,,,,,,,,,,,
,053276,001,2026-04-03_11h04.21.768,DFv2,2026.1.1,MacIntel,61.34969325,,,,,,,,,,,,,,,,,,,,,,,,,,,,,,,,,,,,,,,,,,569.7958,570.2614,n,0.4489,,0,23,23,46,1,47,John Grisham,Y,,,,,,,,,,,,,,,,,,,,,,,,,,,,,,,,,,,
,053276,001,2026-04-03_11h04.21.768,DFv2,2026.1.1,MacIntel,61.34969325,,,,,,,,,,,,,,,,,,,,,,,,,,,,,,,,,,,,,,,,,,570.2627,570.7437,n,0.4635,,0,24,24,3,1,4,Willa Cather,Y,,,,,,,,,,,,,,,,,,,,,,,,,,,,,,,,,,,
,053276,001,2026-04-03_11h04.21.768,DFv2,2026.1.1,MacIntel,61.34969325,,,,,,,,,,,,,,,,,,,,,,,,,,,,,,,,,,,,,,,,,,570.745,571.3113,n,0.5465,,0,25,25,1,1,2,Thomas Pynchon,Y,,,,,,,,,,,,,,,,,,,,,,,,,,,,,,,,,,,
,053276,001,2026-04-03_11h04.21.768,DFv2,2026.1.1,MacIntel,61.34969325,,,,,,,,,,,,,,,,,,,,,,,,,,,,,,,,,,,,,,,,,,571.3124,571.8614,n,0.5297,,0,26,26,48,1,49,Sue Grafton,Y,,,,,,,,,,,,,,,,,,,,,,,,,,,,,,,,,,,
,053276,001,2026-04-03_11h04.21.768,DFv2,2026.1.1,MacIntel,61.34969325,,,,,,,,,,,,,,,,,,,,,,,,,,,,,,,,,,,,,,,,,,571.863,572.378,n,0.5005,,0,27,27,93,1,94,Scott Paris,N,,,,,,,,,,,,,,,,,,,,,,,,,,,,,,,,,,,
,053276,001,2026-04-03_11h04.21.768,DFv2,2026.1.1,MacIntel,61.34969325,,,,,,,,,,,,,,,,,,,,,,,,,,,,,,,,,,,,,,,,,,572.3789,572.8446,n,0.4464,,0,28,28,39,1,40,Robert Ludlum,Y,,,,,,,,,,,,,,,,,,,,,,,,,,,,,,,,,,,
,053276,001,2026-04-03_11h04.21.768,DFv2,2026.1.1,MacIntel,61.34969325,,,,,,,,,,,,,,,,,,,,,,,,,,,,,,,,,,,,,,,,,,572.8457,573.3113,n,0.4465,,0,29,29,61,1,62,Sheryl Green,N,,,,,,,,,,,,,,,,,,,,,,,,,,,,,,,,,,,
,053276,001,2026-04-03_11h04.21.768,DFv2,2026.1.1,MacIntel,61.34969325,,,,,,,,,,,,,,,,,,,,,,,,,,,,,,,,,,,,,,,,,,573.3124,573.7446,n,0.4155,,0,30,30,78,1,79,Brian Bigelow,N,,,,,,,,,,,,,,,,,,,,,,,,,,,,,,,,,,,
,053276,001,2026-04-03_11h04.21.768,DFv2,2026.1.1,MacIntel,61.34969325,,,,,,,,,,,,,,,,,,,,,,,,,,,,,,,,,,,,,,,,,,573.7457,574.1777,n,0.4139,,0,31,31,43,1,44,J.R.R. Tolkien,Y,,,,,,,,,,,,,,,,,,,,,,,,,,,,,,,,,,,
,053276,001,2026-04-03_11h04.21.768,DFv2,2026.1.1,MacIntel,61.34969325,,,,,,,,,,,,,,,,,,,,,,,,,,,,,,,,,,,,,,,,,,574.1788,574.578,n,0.3823,,0,32,32,42,1,43,Nelson Demille,Y,,,,,,,,,,,,,,,,,,,,,,,,,,,,,,,,,,,
,053276,001,2026-04-03_11h04.21.768,DFv2,2026.1.1,MacIntel,61.34969325,,,,,,,,,,,,,,,,,,,,,,,,,,,,,,,,,,,,,,,,,,574.5792,574.9613,n,0.3627,,0,33,33,55,1,56,Katherine Carpenter,N,,,,,,,,,,,,,,,,,,,,,,,,,,,,,,,,,,,
,053276,001,2026-04-03_11h04.21.768,DFv2,2026.1.1,MacIntel,61.34969325,,,,,,,,,,,,,,,,,,,,,,,,,,,,,,,,,,,,,,,,,,574.9622,575.3115,n,0.3309,,0,34,34,82,1,83,Naomi Choy,N,,,,,,,,,,,,,,,,,,,,,,,,,,,,,,,,,,,
,053276,001,2026-04-03_11h04.21.768,DFv2,2026.1.1,MacIntel,61.34969325,,,,,,,,,,,,,,,,,,,,,,,,,,,,,,,,,,,,,,,,,,575.3126,575.6113,n,0.2793,,0,35,35,94,1,95,Jennifer Marshal,N,,,,,,,,,,,,,,,,,,,,,,,,,,,,,,,,,,,
,053276,001,2026-04-03_11h04.21.768,DFv2,2026.1.1,MacIntel,61.34969325,,,,,,,,,,,,,,,,,,,,,,,,,,,,,,,,,,,,,,,,,,575.6124,575.9113,n,0.279,,0,36,36,12,1,13,Kazuo Ishiguro,Y,,,,,,,,,,,,,,,,,,,,,,,,,,,,,,,,,,,
,053276,001,2026-04-03_11h04.21.768,DFv2,2026.1.1,MacIntel,61.34969325,,,,,,,,,,,,,,,,,,,,,,,,,,,,,,,,,,,,,,,,,,575.9124,576.1946,n,0.264,,0,37,37,36,1,37,Thomas Wolfe,Y,,,,,,,,,,,,,,,,,,,,,,,,,,,,,,,,,,,
,053276,001,2026-04-03_11h04.21.768,DFv2,2026.1.1,MacIntel,61.34969325,,,,,,,,,,,,,,,,,,,,,,,,,,,,,,,,,,,,,,,,,,576.1956,576.4447,n,0.2289,,0,38,38,64,1,65,Kirby Kavanagh,N,,,,,,,,,,,,,,,,,,,,,,,,,,,,,,,,,,,
,053276,001,2026-04-03_11h04.21.768,DFv2,2026.1.1,MacIntel,61.34969325,,,,,,,,,,,,,,,,,,,,,,,,,,,,,,,,,,,,,,,,,,576.4457,576.6948,n,0.2311,,0,39,39,87,1,88,Martin Ford,N,,,,,,,,,,,,,,,,,,,,,,,,,,,,,,,,,,,
,053276,001,2026-04-03_11h04.21.768,DFv2,2026.1.1,MacIntel,61.34969325,,,,,,,,,,,,,,,,,,,,,,,,,,,,,,,,,,,,,,,,,,576.696,576.9613,n,0.2506,,0,40,40,9,1,10,F. Scott Fitzgerald,Y,,,,,,,,,,,,,,,,,,,,,,,,,,,,,,,,,,,
,053276,001,2026-04-03_11h04.21.768,DFv2,2026.1.1,MacIntel,61.34969325,,,,,,,,,,,,,,,,,,,,,,,,,,,,,,,,,,,,,,,,,,576.9623,577.394,n,0.4185,,0,41,41,11,1,12,Salman Rushdie,Y,,,,,,,,,,,,,,,,,,,,,,,,,,,,,,,,,,,
,053276,001,2026-04-03_11h04.21.768,DFv2,2026.1.1,MacIntel,61.34969325,,,,,,,,,,,,,,,,,,,,,,,,,,,,,,,,,,,,,,,,,,577.395,577.7282,n,0.3171,,0,42,42,75,1,76,Carter Anvari,N,,,,,,,,,,,,,,,,,,,,,,,,,,,,,,,,,,,
,053276,001,2026-04-03_11h04.21.768,DFv2,2026.1.1,MacIntel,61.34969325,,,,,,,,,,,,,,,,,,,,,,,,,,,,,,,,,,,,,,,,,,577.7298,578.0447,n,0.3003,,0,43,43,47,1,48,Anne McCaffrey,Y,,,,,,,,,,,,,,,,,,,,,,,,,,,,,,,,,,,
,053276,001,2026-04-03_11h04.21.768,DFv2,2026.1.1,MacIntel,61.34969325,,,,,,,,,,,,,,,,,,,,,,,,,,,,,,,,,,,,,,,,,,578.0458,578.4114,n,0.3461,,0,44,44,52,1,53,Thomas Bever,N,,,,,,,,,,,,,,,,,,,,,,,,,,,,,,,,,,,
,053276,001,2026-04-03_11h04.21.768,DFv2,2026.1.1,MacIntel,61.34969325,,,,,,,,,,,,,,,,,,,,,,,,,,,,,,,,,,,,,,,,,,578.4128,578.7113,n,0.2793,,0,45,45,68,1,69,David Perry,N,,,,,,,,,,,,,,,,,,,,,,,,,,,,,,,,,,,
,053276,001,2026-04-03_11h04.21.768,DFv2,2026.1.1,MacIntel,61.34969325,,,,,,,,,,,,,,,,,,,,,,,,,,,,,,,,,,,,,,,,,,578.7124,579.0446,n,0.3153,,0,46,46,41,1,42,Tom Clancy,Y,,,,,,,,,,,,,,,,,,,,,,,,,,,,,,,,,,,
,053276,001,2026-04-03_11h04.21.768,DFv2,2026.1.1,MacIntel,61.34969325,,,,,,,,,,,,,,,,,,,,,,,,,,,,,,,,,,,,,,,,,,579.0456,579.3614,n,0.2976,,0,47,47,27,1,28,Maya Angelou,Y,,,,,,,,,,,,,,,,,,,,,,,,,,,,,,,,,,,
,053276,001,2026-04-03_11h04.21.768,DFv2,2026.1.1,MacIntel,61.34969325,,,,,,,,,,,,,,,,,,,,,,,,,,,,,,,,,,,,,,,,,,579.3624,579.7445,n,0.3633,,0,48,48,79,1,80,Dale Blyth,N,,,,,,,,,,,,,,,,,,,,,,,,,,,,,,,,,,,
,053276,001,2026-04-03_11h04.21.768,DFv2,2026.1.1,MacIntel,61.34969325,,,,,,,,,,,,,,,,,,,,,,,,,,,,,,,,,,,,,,,,,,579.7455,580.0447,n,0.2804,,0,49,49,84,1,85,Geraldine Dawson,N,,,,,,,,,,,,,,,,,,,,,,,,,,,,,,,,,,,
,053276,001,2026-04-03_11h04.21.768,DFv2,2026.1.1,MacIntel,61.34969325,,,,,,,,,,,,,,,,,,,,,,,,,,,,,,,,,,,,,,,,,,580.0461,580.678,n,0.6123,,0,50,50,35,1,36,James Patterson,Y,,,,,,,,,,,,,,,,,,,,,,,,,,,,,,,,,,,
,053276,001,2026-04-03_11h04.21.768,DFv2,2026.1.1,MacIntel,61.34969325,,,,,,,,,,,,,,,,,,,,,,,,,,,,,,,,,,,,,,,,,,580.6793,581.178,n,0.4797,,0,51,51,51,1,52,Lauren Benjamin,N,,,,,,,,,,,,,,,,,,,,,,,,,,,,,,,,,,,
,053276,001,2026-04-03_11h04.21.768,DFv2,2026.1.1,MacIntel,61.34969325,,,,,,,,,,,,,,,,,,,,,,,,,,,,,,,,,,,,,,,,,,581.1789,581.5115,n,0.3131,,0,52,52,6,1,7,Kurt Vonnegut,Y,,,,,,,,,,,,,,,,,,,,,,,,,,,,,,,,,,,
,053276,001,2026-04-03_11h04.21.768,DFv2,2026.1.1,MacIntel,61.34969325,,,,,,,,,,,,,,,,,,,,,,,,,,,,,,,,,,,,,,,,,,581.5128,581.878,n,0.3459,,0,53,53,74,1,75,Eric Amsel,N,,,,,,,,,,,,,,,,,,,,,,,,,,,,,,,,,,,
,053276,001,2026-04-03_11h04.21.768,DFv2,2026.1.1,MacIntel,61.34969325,,,,,,,,,,,,,,,,,,,,,,,,,,,,,,,,,,,,,,,,,,581.8792,582.3948,n,0.4977,,0,54,54,95,1,96,Hugh Lytton,N,,,,,,,,,,,,,,,,,,,,,,,,,,,,,,,,,,,
,053276,001,2026-04-03_11h04.21.768,DFv2,2026.1.1,MacIntel,61.34969325,,,,,,,,,,,,,,,,,,,,,,,,,,,,,,,,,,,,,,,,,,582.3963,582.7446,n,0.3412,,0,55,55,2,1,3,Bernard Malamud,Y,,,,,,,,,,,,,,,,,,,,,,,,,,,,,,,,,,,
,053276,001,2026-04-03_11h04.21.768,DFv2,2026.1.1,MacIntel,61.34969325,,,,,,,,,,,,,,,,,,,,,,,,,,,,,,,,,,,,,,,,,,582.7453,583.1615,n,0.4045,,0,56,56,31,1,32,Isaac Asimov,Y,,,,,,,,,,,,,,,,,,,,,,,,,,,,,,,,,,,
,053276,001,2026-04-03_11h04.21.768,DFv2,2026.1.1,MacIntel,61.34969325,,,,,,,,,,,,,,,,,,,,,,,,,,,,,,,,,,,,,,,,,,583.1627,583.4279,n,0.2514,,0,57,57,37,1,38,Jane Smiley,Y,,,,,,,,,,,,,,,,,,,,,,,,,,,,,,,,,,,
,053276,001,2026-04-03_11h04.21.768,DFv2,2026.1.1,MacIntel,61.34969325,,,,,,,,,,,,,,,,,,,,,,,,,,,,,,,,,,,,,,,,,,583.4286,583.9948,n,0.5477,,0,58,58,69,1,70,Miriam Sexton,N,,,,,,,,,,,,,,,,,,,,,,,,,,,,,,,,,,,
,053276,001,2026-04-03_11h04.21.768,DFv2,2026.1.1,MacIntel,61.34969325,,,,,,,,,,,,,,,,,,,,,,,,,,,,,,,,,,,,,,,,,,583.9959,584.9272,n,0.9135,,0,59,59,91,1,92,Steve Yussen,N,,,,,,,,,,,,,,,,,,,,,,,,,,,,,,,,,,,
,053276,001,2026-04-03_11h04.21.768,DFv2,2026.1.1,MacIntel,61.34969325,,,,,,,,,,,,,,,,,,,,,,,,,,,,,,,,,,,,,,,,,,584.9284,585.3606,n,0.4163,,0,60,60,16,1,17,James Joyce,Y,,,,,,,,,,,,,,,,,,,,,,,,,,,,,,,,,,,
,053276,001,2026-04-03_11h04.21.768,DFv2,2026.1.1,MacIntel,61.34969325,,,,,,,,,,,,,,,,,,,,,,,,,,,,,,,,,,,,,,,,,,585.3618,585.6113,n,0.2312,,0,61,61,56,1,57,Suzanne Clarkson,N,,,,,,,,,,,,,,,,,,,,,,,,,,,,,,,,,,,
,053276,001,2026-04-03_11h04.21.768,DFv2,2026.1.1,MacIntel,61.34969325,,,,,,,,,,,,,,,,,,,,,,,,,,,,,,,,,,,,,,,,,,585.6124,586.6614,n,1.0358,,0,62,62,21,1,22,T.S. Elliot,Y,,,,,,,,,,,,,,,,,,,,,,,,,,,,,,,,,,,
,053276,001,2026-04-03_11h04.21.768,DFv2,2026.1.1,MacIntel,61.34969325,,,,,,,,,,,,,,,,,,,,,,,,,,,,,,,,,,,,,,,,,,586.6625,587.3614,n,0.6789,,0,63,63,8,1,9,Ernest Hemingway,Y,,,,,,,,,,,,,,,,,,,,,,,,,,,,,,,,,,,
,053276,001,2026-04-03_11h04.21.768,DFv2,2026.1.1,MacIntel,61.34969325,,,,,,,,,,,,,,,,,,,,,,,,,,,,,,,,,,,,,,,,,,587.3624,588.6939,n,1.3132,,0,64,64,38,1,39,Herman Wouk,Y,,,,,,,,,,,,,,,,,,,,,,,,,,,,,,,,,,,
,053276,001,2026-04-03_11h04.21.768,DFv2,2026.1.1,MacIntel,61.34969325,,,,,,,,,,,,,,,,,,,,,,,,,,,,,,,,,,,,,,,,,,588.6949,588.9614,n,0.2478,,0,65,65,65,1,66,Alex Lumsden,N,,,,,,,,,,,,,,,,,,,,,,,,,,,,,,,,,,,
,053276,001,2026-04-03_11h04.21.768,DFv2,2026.1.1,MacIntel,61.34969325,,,,,,,,,,,,,,,,,,,,,,,,,,,,,,,,,,,,,,,,,,588.9625,589.7447,n,0.7686,,0,66,66,33,1,34,Samuel Beckett,Y,,,,,,,,,,,,,,,,,,,,,,,,,,,,,,,,,,,
,053276,001,2026-04-03_11h04.21.768,DFv2,2026.1.1,MacIntel,61.34969325,,,,,,,,,,,,,,,,,,,,,,,,,,,,,,,,,,,,,,,,,,589.7459,593.4113,n,3.6454,,0,67,67,4,1,5,Virginia Woolf,Y,,,,,,,,,,,,,,,,,,,,,,,,,,,,,,,,,,,
,053276,001,2026-04-03_11h04.21.768,DFv2,2026.1.1,MacIntel,61.34969325,,,,,,,,,,,,,,,,,,,,,,,,,,,,,,,,,,,,,,,,,,593.4125,593.678,n,0.2407,,0,68,68,70,1,71, K. Warner Schaie,N,,,,,,,,,,,,,,,,,,,,,,,,,,,,,,,,,,,
,053276,001,2026-04-03_11h04.21.768,DFv2,2026.1.1,MacIntel,61.34969325,,,,,,,,,,,,,,,,,,,,,,,,,,,,,,,,,,,,,,,,,,593.6789,596.1447,n,2.446,,0,69,69,53,1,54,Elliot Blass,N,,,,,,,,,,,,,,,,,,,,,,,,,,,,,,,,,,,
,053276,001,2026-04-03_11h04.21.768,DFv2,2026.1.1,MacIntel,61.34969325,,,,,,,,,,,,,,,,,,,,,,,,,,,,,,,,,,,,,,,,,,596.1459,596.4614,n,0.3004,,0,70,70,88,1,89,Ryan Gilbertson,N,,,,,,,,,,,,,,,,,,,,,,,,,,,,,,,,,,,
,053276,001,2026-04-03_11h04.21.768,DFv2,2026.1.1,MacIntel,61.34969325,,,,,,,,,,,,,,,,,,,,,,,,,,,,,,,,,,,,,,,,,,596.4627,596.7782,n,0.3017,,0,71,71,71,1,72,Robert Siegler,N,,,,,,,,,,,,,,,,,,,,,,,,,,,,,,,,,,,
,053276,001,2026-04-03_11h04.21.768,DFv2,2026.1.1,MacIntel,61.34969325,,,,,,,,,,,,,,,,,,,,,,,,,,,,,,,,,,,,,,,,,,596.7795,597.2117,n,0.4131,,0,72,72,10,1,11,Vladimir Nabokov,Y,,,,,,,,,,,,,,,,,,,,,,,,,,,,,,,,,,,
,053276,001,2026-04-03_11h04.21.768,DFv2,2026.1.1,MacIntel,61.34969325,,,,,,,,,,,,,,,,,,,,,,,,,,,,,,,,,,,,,,,,,,597.2133,597.494,n,0.2618,,0,73,73,67,1,68,James Morgan,N,,,,,,,,,,,,,,,,,,,,,,,,,,,,,,,,,,,
,053276,001,2026-04-03_11h04.21.768,DFv2,2026.1.1,MacIntel,61.34969325,,,,,,,,,,,,,,,,,,,,,,,,,,,,,,,,,,,,,,,,,,597.4949,597.8114,n,0.3036,,0,74,74,19,1,20,Michael Ondaatje,Y,,,,,,,,,,,,,,,,,,,,,,,,,,,,,,,,,,,
,053276,001,2026-04-03_11h04.21.768,DFv2,2026.1.1,MacIntel,61.34969325,,,,,,,,,,,,,,,,,,,,,,,,,,,,,,,,,,,,,,,,,,597.8126,598.2614,n,0.4301,,0,75,75,97,1,98,Caleb Lim,N,,,,,,,,,,,,,,,,,,,,,,,,,,,,,,,,,,,
,053276,001,2026-04-03_11h04.21.768,DFv2,2026.1.1,MacIntel,61.34969325,,,,,,,,,,,,,,,,,,,,,,,,,,,,,,,,,,,,,,,,,,598.2625,598.7608,n,0.4791,,0,76,76,0,1,1,Saul Bellow,Y,,,,,,,,,,,,,,,,,,,,,,,,,,,,,,,,,,,
,053276,001,2026-04-03_11h04.21.768,DFv2,2026.1.1,MacIntel,61.34969325,,,,,,,,,,,,,,,,,,,,,,,,,,,,,,,,,,,,,,,,,,598.7619,599.6114,n,0.8362,,0,77,77,50,1,51,Christopher Barr,N,,,,,,,,,,,,,,,,,,,,,,,,,,,,,,,,,,,
,053276,001,2026-04-03_11h04.21.768,DFv2,2026.1.1,MacIntel,61.34969325,,,,,,,,,,,,,,,,,,,,,,,,,,,,,,,,,,,,,,,,,,599.6126,600.0449,n,0.4249,,0,78,78,86,1,87,Frances Fincham,N,,,,,,,,,,,,,,,,,,,,,,,,,,,,,,,,,,,
,053276,001,2026-04-03_11h04.21.768,DFv2,2026.1.1,MacIntel,61.34969325,,,,,,,,,,,,,,,,,,,,,,,,,,,,,,,,,,,,,,,,,,600.0457,600.4282,n,0.3686,,0,79,79,80,1,81,Harrison Boldt,N,,,,,,,,,,,,,,,,,,,,,,,,,,,,,,,,,,,
,053276,001,2026-04-03_11h04.21.768,DFv2,2026.1.1,MacIntel,61.34969325,,,,,,,,,,,,,,,,,,,,,,,,,,,,,,,,,,,,,,,,,,600.4293,600.9116,n,0.4652,,0,80,80,20,1,21,Toni Morrison,Y,,,,,,,,,,,,,,,,,,,,,,,,,,,,,,,,,,,
,053276,001,2026-04-03_11h04.21.768,DFv2,2026.1.1,MacIntel,61.34969325,,,,,,,,,,,,,,,,,,,,,,,,,,,,,,,,,,,,,,,,,,600.9132,601.5115,n,0.5786,,0,81,81,30,1,31,Umberto Eco,Y,,,,,,,,,,,,,,,,,,,,,,,,,,,,,,,,,,,
,053276,001,2026-04-03_11h04.21.768,DFv2,2026.1.1,MacIntel,61.34969325,,,,,,,,,,,,,,,,,,,,,,,,,,,,,,,,,,,,,,,,,,601.5128,601.9447,n,0.4119,,0,82,82,92,1,93,Peter Rigg,N,,,,,,,,,,,,,,,,,,,,,,,,,,,,,,,,,,,
,053276,001,2026-04-03_11h04.21.768,DFv2,2026.1.1,MacIntel,61.34969325,,,,,,,,,,,,,,,,,,,,,,,,,,,,,,,,,,,,,,,,,,601.9459,602.3615,n,0.3966,,0,83,83,28,1,29,Ray Bradbury,Y,,,,,,,,,,,,,,,,,,,,,,,,,,,,,,,,,,,
,053276,001,2026-04-03_11h04.21.768,DFv2,2026.1.1,MacIntel,61.34969325,,,,,,,,,,,,,,,,,,,,,,,,,,,,,,,,,,,,,,,,,,602.3626,602.9948,n,0.6135,,0,84,84,45,1,46,James Michener,Y,,,,,,,,,,,,,,,,,,,,,,,,,,,,,,,,,,,
,053276,001,2026-04-03_11h04.21.768,DFv2,2026.1.1,MacIntel,61.34969325,,,,,,,,,,,,,,,,,,,,,,,,,,,,,,,,,,,,,,,,,,602.9961,603.3114,n,0.2952,,0,85,85,63,1,64,Frank Kiel,N,,,,,,,,,,,,,,,,,,,,,,,,,,,,,,,,,,,
,053276,001,2026-04-03_11h04.21.768,DFv2,2026.1.1,MacIntel,61.34969325,,,,,,,,,,,,,,,,,,,,,,,,,,,,,,,,,,,,,,,,,,603.3126,603.5784,n,0.2456,,0,86,86,58,1,59,W. Patrick Dickson,N,,,,,,,,,,,,,,,,,,,,,,,,,,,,,,,,,,,
,053276,001,2026-04-03_11h04.21.768,DFv2,2026.1.1,MacIntel,61.34969325,,,,,,,,,,,,,,,,,,,,,,,,,,,,,,,,,,,,,,,,,,603.5797,603.8448,n,0.2487,,0,87,87,76,1,77,Margarita Azmitia,N,,,,,,,,,,,,,,,,,,,,,,,,,,,,,,,,,,,
,053276,001,2026-04-03_11h04.21.768,DFv2,2026.1.1,MacIntel,61.34969325,,,,,,,,,,,,,,,,,,,,,,,,,,,,,,,,,,,,,,,,,,603.8458,604.3114,n,0.4475,,0,88,88,77,1,78,Reuben Baron,N,,,,,,,,,,,,,,,,,,,,,,,,,,,,,,,,,,,
,053276,001,2026-04-03_11h04.21.768,DFv2,2026.1.1,MacIntel,61.34969325,,,,,,,,,,,,,,,,,,,,,,,,,,,,,,,,,,,,,,,,,,604.3125,604.6781,n,0.346,,0,89,89,32,1,33,Raymond Chandler,Y,,,,,,,,,,,,,,,,,,,,,,,,,,,,,,,,,,,
,053276,001,2026-04-03_11h04.21.768,DFv2,2026.1.1,MacIntel,61.34969325,,,,,,,,,,,,,,,,,,,,,,,,,,,,,,,,,,,,,,,,,,604.6792,604.995,n,0.3029,,0,90,90,23,1,24,George Orwell,Y,,,,,,,,,,,,,,,,,,,,,,,,,,,,,,,,,,,
,053276,001,2026-04-03_11h04.21.768,DFv2,2026.1.1,MacIntel,61.34969325,,,,,,,,,,,,,,,,,,,,,,,,,,,,,,,,,,,,,,,,,,604.9968,605.4281,n,0.4127,,0,91,91,49,1,50,Judith Krantz,Y,,,,,,,,,,,,,,,,,,,,,,,,,,,,,,,,,,,
,053276,001,2026-04-03_11h04.21.768,DFv2,2026.1.1,MacIntel,61.34969325,,,,,,,,,,,,,,,,,,,,,,,,,,,,,,,,,,,,,,,,,,605.4293,605.8781,n,0.4301,,0,92,92,57,1,58,Edward Cornell,N,,,,,,,,,,,,,,,,,,,,,,,,,,,,,,,,,,,
,053276,001,2026-04-03_11h04.21.768,DFv2,2026.1.1,MacIntel,61.34969325,,,,,,,,,,,,,,,,,,,,,,,,,,,,,,,,,,,,,,,,,,605.8793,606.2615,n,0.3644,,0,93,93,66,1,67,Morton Mendelson,N,,,,,,,,,,,,,,,,,,,,,,,,,,,,,,,,,,,
,053276,001,2026-04-03_11h04.21.768,DFv2,2026.1.1,MacIntel,61.34969325,,,,,,,,,,,,,,,,,,,,,,,,,,,,,,,,,,,,,,,,,,606.2626,606.6949,n,0.4139,,0,94,94,89,1,90,Nicole Waugh,N,,,,,,,,,,,,,,,,,,,,,,,,,,,,,,,,,,,
,053276,001,2026-04-03_11h04.21.768,DFv2,2026.1.1,MacIntel,61.34969325,,,,,,,,,,,,,,,,,,,,,,,,,,,,,,,,,,,,,,,,,,606.6962,607.0282,n,0.3125,,0,95,95,14,1,15,Margaret Atwood,Y,,,,,,,,,,,,,,,,,,,,,,,,,,,,,,,,,,,
,053276,001,2026-04-03_11h04.21.768,DFv2,2026.1.1,MacIntel,61.34969325,,,,,,,,,,,,,,,,,,,,,,,,,,,,,,,,,,,,,,,,,,607.0292,607.5449,n,0.4965,,0,96,96,7,1,8,J.D. Salinger,Y,,,,,,,,,,,,,,,,,,,,,,,,,,,,,,,,,,,
,053276,001,2026-04-03_11h04.21.768,DFv2,2026.1.1,MacIntel,61.34969325,,,,,,,,,,,,,,,,,,,,,,,,,,,,,,,,,,,,,,,,,,607.5464,607.9449,n,0.379,,0,97,97,99,1,100,Reed Larson,N,,,,,,,,,,,,,,,,,,,,,,,,,,,,,,,,,,,
,053276,001,2026-04-03_11h04.21.768,DFv2,2026.1.1,MacIntel,61.34969325,,,,,,,,,,,,,,,,,,,,,,,,,,,,,,,,,,,,,,,,,,607.946,608.2447,n,0.2791,,0,98,98,5,1,6,Gabriel Garcia Marquez,Y,,,,,,,,,,,,,,,,,,,,,,,,,,,,,,,,,,,
,053276,001,2026-04-03_11h04.21.768,DFv2,2026.1.1,MacIntel,61.34969325,,,,,,,,,,,,,,,,,,,,,,,,,,,,,,,,,,,,,,,,,,608.2459,608.4948,n,0.2316,,0,99,99,26,1,27,Danielle Steel,Y,,,,,,,,,,,,,,,,,,,,,,,,,,,,,,,,,,,
,053276,001,2026-04-03_11h04.21.768,DFv2,2026.1.1,MacIntel,61.34969325,,,,,,,,,,,,,,,,,,,,,,,,,,,,,,,,,,,,,,,,,,,,,,,,,,,,,,,608.4953,629.8955,,,,,,,,,,,,,,,,,,,,,,,,,,,,,,,,,
,053276,001,2026-04-03_11h04.21.768,DFv2,2026.1.1,MacIntel,61.34969325,,,,,,,,,,,,,,,,,,,,,,,,,,,,,,,,,,,,,,,,,,,,,,,,,,,,57,,,,,629.9048,633.8119,n,3.8816,,0,0,0,56,1,purrage,N,,,,,,,,,,,,,,,,,,,,,
,053276,001,2026-04-03_11h04.21.768,DFv2,2026.1.1,MacIntel,61.34969325,,,,,,,,,,,,,,,,,,,,,,,,,,,,,,,,,,,,,,,,,,,,,,,,,,,,10,,,,,633.8138,634.2449,n,0.4075,,0,1,1,9,1,lofty,Y,,,,,,,,,,,,,,,,,,,,,
,053276,001,2026-04-03_11h04.21.768,DFv2,2026.1.1,MacIntel,61.34969325,,,,,,,,,,,,,,,,,,,,,,,,,,,,,,,,,,,,,,,,,,,,,,,,,,,,47,,,,,634.2459,634.6616,n,0.3955,,0,2,2,46,1,turmoil,Y,,,,,,,,,,,,,,,,,,,,,
,053276,001,2026-04-03_11h04.21.768,DFv2,2026.1.1,MacIntel,61.34969325,,,,,,,,,,,,,,,,,,,,,,,,,,,,,,,,,,,,,,,,,,,,,,,,,,,,15,,,,,634.6629,634.9444,n,0.2735,,0,3,3,14,1,breeding,Y,,,,,,,,,,,,,,,,,,,,,
,053276,001,2026-04-03_11h04.21.768,DFv2,2026.1.1,MacIntel,61.34969325,,,,,,,,,,,,,,,,,,,,,,,,,,,,,,,,,,,,,,,,,,,,,,,,,,,,46,,,,,634.9452,635.3116,n,0.3485,,0,4,4,45,1,proom,N,,,,,,,,,,,,,,,,,,,,,
,053276,001,2026-04-03_11h04.21.768,DFv2,2026.1.1,MacIntel,61.34969325,,,,,,,,,,,,,,,,,,,,,,,,,,,,,,,,,,,,,,,,,,,,,,,,,,,,22,,,,,635.3129,635.645,n,0.3133,,0,5,5,21,1,spaunch,N,,,,,,,,,,,,,,,,,,,,,
,053276,001,2026-04-03_11h04.21.768,DFv2,2026.1.1,MacIntel,61.34969325,,,,,,,,,,,,,,,,,,,,,,,,,,,,,,,,,,,,,,,,,,,,,,,,,,,,19,,,,,635.6463,635.8784,n,0.217,,0,6,6,18,1,plaudate,N,,,,,,,,,,,,,,,,,,,,,
,053276,001,2026-04-03_11h04.21.768,DFv2,2026.1.1,MacIntel,61.34969325,,,,,,,,,,,,,,,,,,,,,,,,,,,,,,,,,,,,,,,,,,,,,,,,,,,,12,,,,,635.8797,636.1282,n,0.2289,,0,7,7,11,1,flaw,Y,,,,,,,,,,,,,,,,,,,,,
,053276,001,2026-04-03_11h04.21.768,DFv2,2026.1.1,MacIntel,61.34969325,,,,,,,,,,,,,,,,,,,,,,,,,,,,,,,,,,,,,,,,,,,,,,,,,,,,1,,,,,636.1294,636.3616,n,0.2139,,0,8,8,0,1,platery,N,,,,,,,,,,,,,,,,,,,,,
,053276,001,2026-04-03_11h04.21.768,DFv2,2026.1.1,MacIntel,61.34969325,,,,,,,,,,,,,,,,,,,,,,,,,,,,,,,,,,,,,,,,,,,,,,,,,,,,35,,,,,636.3632,636.5615,n,0.1782,,0,9,9,34,1,kilp,N,,,,,,,,,,,,,,,,,,,,,
,053276,001,2026-04-03_11h04.21.768,DFv2,2026.1.1,MacIntel,61.34969325,,,,,,,,,,,,,,,,,,,,,,,,,,,,,,,,,,,,,,,,,,,,,,,,,,,,62,,,,,636.5627,636.7783,n,0.1966,,0,10,10,61,1,listless,Y,,,,,,,,,,,,,,,,,,,,,
,053276,001,2026-04-03_11h04.21.768,DFv2,2026.1.1,MacIntel,61.34969325,,,,,,,,,,,,,,,,,,,,,,,,,,,,,,,,,,,,,,,,,,,,,,,,,,,,50,,,,,636.7797,637.0446,n,0.2459,,0,11,11,49,1,turtle,Y,,,,,,,,,,,,,,,,,,,,,
,053276,001,2026-04-03_11h04.21.768,DFv2,2026.1.1,MacIntel,61.34969325,,,,,,,,,,,,,,,,,,,,,,,,,,,,,,,,,,,,,,,,,,,,,,,,,,,,31,,,,,637.045,637.2783,n,0.2175,,0,12,12,30,1,ingenious,Y,,,,,,,,,,,,,,,,,,,,,
,053276,001,2026-04-03_11h04.21.768,DFv2,2026.1.1,MacIntel,61.34969325,,,,,,,,,,,,,,,,,,,,,,,,,,,,,,,,,,,,,,,,,,,,,,,,,,,,7,,,,,637.2796,637.5283,n,0.2288,,0,13,13,6,1,ablaze,Y,,,,,,,,,,,,,,,,,,,,,
,053276,001,2026-04-03_11h04.21.768,DFv2,2026.1.1,MacIntel,61.34969325,,,,,,,,,,,,,,,,,,,,,,,,,,,,,,,,,,,,,,,,,,,,,,,,,,,,26,,,,,637.5294,638.1616,n,0.613,,0,14,14,25,1,exprate,N,,,,,,,,,,,,,,,,,,,,,
,053276,001,2026-04-03_11h04.21.768,DFv2,2026.1.1,MacIntel,61.34969325,,,,,,,,,,,,,,,,,,,,,,,,,,,,,,,,,,,,,,,,,,,,,,,,,,,,23,,,,,638.1627,638.5116,n,0.33,,0,15,15,22,1,allied,Y,,,,,,,,,,,,,,,,,,,,,
,053276,001,2026-04-03_11h04.21.768,DFv2,2026.1.1,MacIntel,61.34969325,,,,,,,,,,,,,,,,,,,,,,,,,,,,,,,,,,,,,,,,,,,,,,,,,,,,33,,,,,638.5127,638.9282,n,0.3965,,0,16,16,32,1,skave,N,,,,,,,,,,,,,,,,,,,,,
,053276,001,2026-04-03_11h04.21.768,DFv2,2026.1.1,MacIntel,61.34969325,,,,,,,,,,,,,,,,,,,,,,,,,,,,,,,,,,,,,,,,,,,,,,,,,,,,8,,,,,638.9291,639.3116,n,0.3634,,0,17,17,7,1,kermshaw,N,,,,,,,,,,,,,,,,,,,,,
,053276,001,2026-04-03_11h04.21.768,DFv2,2026.1.1,MacIntel,61.34969325,,,,,,,,,,,,,,,,,,,,,,,,,,,,,,,,,,,,,,,,,,,,,,,,,,,,53,,,,,639.3126,639.6615,n,0.3298,,0,18,18,52,1,cylinder,Y,,,,,,,,,,,,,,,,,,,,,
,053276,001,2026-04-03_11h04.21.768,DFv2,2026.1.1,MacIntel,61.34969325,,,,,,,,,,,,,,,,,,,,,,,,,,,,,,,,,,,,,,,,,,,,,,,,,,,,6,,,,,639.6624,640.0116,n,0.3312,,0,19,19,5,1,stoutly,Y,,,,,,,,,,,,,,,,,,,,,
,053276,001,2026-04-03_11h04.21.768,DFv2,2026.1.1,MacIntel,61.34969325,,,,,,,,,,,,,,,,,,,,,,,,,,,,,,,,,,,,,,,,,,,,,,,,,,,,63,,,,,640.0126,640.3785,n,0.3468,,0,20,20,62,1,wrought,Y,,,,,,,,,,,,,,,,,,,,,
,053276,001,2026-04-03_11h04.21.768,DFv2,2026.1.1,MacIntel,61.34969325,,,,,,,,,,,,,,,,,,,,,,,,,,,,,,,,,,,,,,,,,,,,,,,,,,,,43,,,,,640.3799,640.7116,n,0.3173,,0,21,21,42,1,magrity,N,,,,,,,,,,,,,,,,,,,,,
,053276,001,2026-04-03_11h04.21.768,DFv2,2026.1.1,MacIntel,61.34969325,,,,,,,,,,,,,,,,,,,,,,,,,,,,,,,,,,,,,,,,,,,,,,,,,,,,25,,,,,640.7126,641.0451,n,0.3133,,0,22,22,24,1,recipient,Y,,,,,,,,,,,,,,,,,,,,,
,053276,001,2026-04-03_11h04.21.768,DFv2,2026.1.1,MacIntel,61.34969325,,,,,,,,,,,,,,,,,,,,,,,,,,,,,,,,,,,,,,,,,,,,,,,,,,,,56,,,,,641.0464,641.4283,n,0.3621,,0,23,23,55,1,rascal,Y,,,,,,,,,,,,,,,,,,,,,
,053276,001,2026-04-03_11h04.21.768,DFv2,2026.1.1,MacIntel,61.34969325,,,,,,,,,,,,,,,,,,,,,,,,,,,,,,,,,,,,,,,,,,,,,,,,,,,,45,,,,,641.4293,641.795,n,0.3519,,0,24,24,44,1,abergy,N,,,,,,,,,,,,,,,,,,,,,
,053276,001,2026-04-03_11h04.21.768,DFv2,2026.1.1,MacIntel,61.34969325,,,,,,,,,,,,,,,,,,,,,,,,,,,,,,,,,,,,,,,,,,,,,,,,,,,,59,,,,,641.7963,642.1449,n,0.3287,,0,25,25,58,1,muddy,Y,,,,,,,,,,,,,,,,,,,,,
,053276,001,2026-04-03_11h04.21.768,DFv2,2026.1.1,MacIntel,61.34969325,,,,,,,,,,,,,,,,,,,,,,,,,,,,,,,,,,,,,,,,,,,,,,,,,,,,30,,,,,642.146,642.4951,n,0.3295,,0,26,26,29,1,rebondicate,N,,,,,,,,,,,,,,,,,,,,,
,053276,001,2026-04-03_11h04.21.768,DFv2,2026.1.1,MacIntel,61.34969325,,,,,,,,,,,,,,,,,,,,,,,,,,,,,,,,,,,,,,,,,,,,,,,,,,,,52,,,,,642.4963,642.8454,n,0.3417,,0,27,27,51,1,destription,N,,,,,,,,,,,,,,,,,,,,,
,053276,001,2026-04-03_11h04.21.768,DFv2,2026.1.1,MacIntel,61.34969325,,,,,,,,,,,,,,,,,,,,,,,,,,,,,,,,,,,,,,,,,,,,,,,,,,,,2,,,,,642.8464,643.1949,n,0.3308,,0,28,28,1,1,denial,Y,,,,,,,,,,,,,,,,,,,,,
,053276,001,2026-04-03_11h04.21.768,DFv2,2026.1.1,MacIntel,61.34969325,,,,,,,,,,,,,,,,,,,,,,,,,,,,,,,,,,,,,,,,,,,,,,,,,,,,41,,,,,643.1961,643.5451,n,0.335,,0,29,29,40,1,upkeep,Y,,,,,,,,,,,,,,,,,,,,,
,053276,001,2026-04-03_11h04.21.768,DFv2,2026.1.1,MacIntel,61.34969325,,,,,,,,,,,,,,,,,,,,,,,,,,,,,,,,,,,,,,,,,,,,,,,,,,,,21,,,,,643.5462,643.8785,n,0.318,,0,30,30,20,1,fluid,Y,,,,,,,,,,,,,,,,,,,,,
,053276,001,2026-04-03_11h04.21.768,DFv2,2026.1.1,MacIntel,61.34969325,,,,,,,,,,,,,,,,,,,,,,,,,,,,,,,,,,,,,,,,,,,,,,,,,,,,24,,,,,643.8796,644.2284,n,0.3302,,0,31,31,23,1,slain,Y,,,,,,,,,,,,,,,,,,,,,
,053276,001,2026-04-03_11h04.21.768,DFv2,2026.1.1,MacIntel,61.34969325,,,,,,,,,,,,,,,,,,,,,,,,,,,,,,,,,,,,,,,,,,,,,,,,,,,,5,,,,,644.2296,644.5283,n,0.2802,,0,32,32,4,1,scornful,Y,,,,,,,,,,,,,,,,,,,,,
,053276,001,2026-04-03_11h04.21.768,DFv2,2026.1.1,MacIntel,61.34969325,,,,,,,,,,,,,,,,,,,,,,,,,,,,,,,,,,,,,,,,,,,,,,,,,,,,3,,,,,644.5296,644.8114,n,0.2745,,0,33,33,2,1,generic,Y,,,,,,,,,,,,,,,,,,,,,
,053276,001,2026-04-03_11h04.21.768,DFv2,2026.1.1,MacIntel,61.34969325,,,,,,,,,,,,,,,,,,,,,,,,,,,,,,,,,,,,,,,,,,,,,,,,,,,,13,,,,,644.8122,645.0949,n,0.2661,,0,34,34,12,1,alberation,N,,,,,,,,,,,,,,,,,,,,,
,053276,001,2026-04-03_11h04.21.768,DFv2,2026.1.1,MacIntel,61.34969325,,,,,,,,,,,,,,,,,,,,,,,,,,,,,,,,,,,,,,,,,,,,,,,,,,,,28,,,,,645.0959,645.3783,n,0.2625,,0,35,35,27,1,cleanliness,Y,,,,,,,,,,,,,,,,,,,,,
,053276,001,2026-04-03_11h04.21.768,DFv2,2026.1.1,MacIntel,61.34969325,,,,,,,,,,,,,,,,,,,,,,,,,,,,,,,,,,,,,,,,,,,,,,,,,,,,55,,,,,645.3793,645.6451,n,0.2456,,0,36,36,54,1,celestial,Y,,,,,,,,,,,,,,,,,,,,,
,053276,001,2026-04-03_11h04.21.768,DFv2,2026.1.1,MacIntel,61.34969325,,,,,,,,,,,,,,,,,,,,,,,,,,,,,,,,,,,,,,,,,,,,,,,,,,,,49,,,,,645.6464,645.9113,n,0.2445,,0,37,37,48,1,scholar,Y,,,,,,,,,,,,,,,,,,,,,
,053276,001,2026-04-03_11h04.21.768,DFv2,2026.1.1,MacIntel,61.34969325,,,,,,,,,,,,,,,,,,,,,,,,,,,,,,,,,,,,,,,,,,,,,,,,,,,,9,,,,,645.9121,646.1287,n,0.2036,,0,38,38,8,1,moonlit,Y,,,,,,,,,,,,,,,,,,,,,
,053276,001,2026-04-03_11h04.21.768,DFv2,2026.1.1,MacIntel,61.34969325,,,,,,,,,,,,,,,,,,,,,,,,,,,,,,,,,,,,,,,,,,,,,,,,,,,,17,,,,,646.13,646.3286,n,0.1767,,0,39,39,16,1,screech,Y,,,,,,,,,,,,,,,,,,,,,
,053276,001,2026-04-03_11h04.21.768,DFv2,2026.1.1,MacIntel,61.34969325,,,,,,,,,,,,,,,,,,,,,,,,,,,,,,,,,,,,,,,,,,,,,,,,,,,,60,,,,,646.3299,646.5282,n,0.1785,,0,40,40,59,1,quirty,N,,,,,,,,,,,,,,,,,,,,,
,053276,001,2026-04-03_11h04.21.768,DFv2,2026.1.1,MacIntel,61.34969325,,,,,,,,,,,,,,,,,,,,,,,,,,,,,,,,,,,,,,,,,,,,,,,,,,,,42,,,,,646.5292,646.6947,n,0.1577,,0,41,41,41,1,majestic,Y,,,,,,,,,,,,,,,,,,,,,
,053276,001,2026-04-03_11h04.21.768,DFv2,2026.1.1,MacIntel,61.34969325,,,,,,,,,,,,,,,,,,,,,,,,,,,,,,,,,,,,,,,,,,,,,,,,,,,,51,,,,,646.6954,646.8785,n,0.1774,,0,42,42,50,1,fellick,N,,,,,,,,,,,,,,,,,,,,,
,053276,001,2026-04-03_11h04.21.768,DFv2,2026.1.1,MacIntel,61.34969325,,,,,,,,,,,,,,,,,,,,,,,,,,,,,,,,,,,,,,,,,,,,,,,,,,,,4,,,,,646.8796,647.0615,n,0.1743,,0,43,43,3,1,mensible,N,,,,,,,,,,,,,,,,,,,,,
,053276,001,2026-04-03_11h04.21.768,DFv2,2026.1.1,MacIntel,61.34969325,,,,,,,,,,,,,,,,,,,,,,,,,,,,,,,,,,,,,,,,,,,,,,,,,,,,48,,,,,647.0623,647.295,n,0.2148,,0,44,44,47,1,carbohydrate,Y,,,,,,,,,,,,,,,,,,,,,
,053276,001,2026-04-03_11h04.21.768,DFv2,2026.1.1,MacIntel,61.34969325,,,,,,,,,,,,,,,,,,,,,,,,,,,,,,,,,,,,,,,,,,,,,,,,,,,,34,,,,,647.2961,647.5617,n,0.2456,,0,45,45,33,1,plaintively,Y,,,,,,,,,,,,,,,,,,,,,
,053276,001,2026-04-03_11h04.21.768,DFv2,2026.1.1,MacIntel,61.34969325,,,,,,,,,,,,,,,,,,,,,,,,,,,,,,,,,,,,,,,,,,,,,,,,,,,,40,,,,,647.5628,647.8284,n,0.2464,,0,46,46,39,1,crumper,N,,,,,,,,,,,,,,,,,,,,,
,053276,001,2026-04-03_11h04.21.768,DFv2,2026.1.1,MacIntel,61.34969325,,,,,,,,,,,,,,,,,,,,,,,,,,,,,,,,,,,,,,,,,,,,,,,,,,,,39,,,,,647.8294,648.0782,n,0.2294,,0,47,47,38,1,fray,Y,,,,,,,,,,,,,,,,,,,,,
,053276,001,2026-04-03_11h04.21.768,DFv2,2026.1.1,MacIntel,61.34969325,,,,,,,,,,,,,,,,,,,,,,,,,,,,,,,,,,,,,,,,,,,,,,,,,,,,61,,,,,648.0792,648.3282,n,0.2312,,0,48,48,60,1,pudour,N,,,,,,,,,,,,,,,,,,,,,
,053276,001,2026-04-03_11h04.21.768,DFv2,2026.1.1,MacIntel,61.34969325,,,,,,,,,,,,,,,,,,,,,,,,,,,,,,,,,,,,,,,,,,,,,,,,,,,,29,,,,,648.3292,648.5949,n,0.2486,,0,49,49,28,1,dispatch,Y,,,,,,,,,,,,,,,,,,,,,
,053276,001,2026-04-03_11h04.21.768,DFv2,2026.1.1,MacIntel,61.34969325,,,,,,,,,,,,,,,,,,,,,,,,,,,,,,,,,,,,,,,,,,,,,,,,,,,,44,,,,,648.596,648.8617,n,0.2455,,0,50,50,43,1,nourishment,Y,,,,,,,,,,,,,,,,,,,,,
,053276,001,2026-04-03_11h04.21.768,DFv2,2026.1.1,MacIntel,61.34969325,,,,,,,,,,,,,,,,,,,,,,,,,,,,,,,,,,,,,,,,,,,,,,,,,,,,58,,,,,648.863,649.0951,n,0.2175,,0,51,51,57,1,pulsh,N,,,,,,,,,,,,,,,,,,,,,
,053276,001,2026-04-03_11h04.21.768,DFv2,2026.1.1,MacIntel,61.34969325,,,,,,,,,,,,,,,,,,,,,,,,,,,,,,,,,,,,,,,,,,,,,,,,,,,,11,,,,,649.096,649.3282,n,0.2136,,0,52,52,10,1,hurricane,Y,,,,,,,,,,,,,,,,,,,,,
,053276,001,2026-04-03_11h04.21.768,DFv2,2026.1.1,MacIntel,61.34969325,,,,,,,,,,,,,,,,,,,,,,,,,,,,,,,,,,,,,,,,,,,,,,,,,,,,38,,,,,649.3293,649.5616,n,0.2127,,0,53,53,37,1,lengthy,Y,,,,,,,,,,,,,,,,,,,,,
,053276,001,2026-04-03_11h04.21.768,DFv2,2026.1.1,MacIntel,61.34969325,,,,,,,,,,,,,,,,,,,,,,,,,,,,,,,,,,,,,,,,,,,,,,,,,,,,37,,,,,649.5624,649.7783,n,0.1959,,0,54,54,36,1,hasty,Y,,,,,,,,,,,,,,,,,,,,,
,053276,001,2026-04-03_11h04.21.768,DFv2,2026.1.1,MacIntel,61.34969325,,,,,,,,,,,,,,,,,,,,,,,,,,,,,,,,,,,,,,,,,,,,,,,,,,,,16,,,,,649.7794,649.995,n,0.1954,,0,55,55,15,1,festivity,Y,,,,,,,,,,,,,,,,,,,,,
,053276,001,2026-04-03_11h04.21.768,DFv2,2026.1.1,MacIntel,61.34969325,,,,,,,,,,,,,,,,,,,,,,,,,,,,,,,,,,,,,,,,,,,,,,,,,,,,54,,,,,649.9965,650.2116,n,0.1956,,0,56,56,53,1,censorship,Y,,,,,,,,,,,,,,,,,,,,,
,053276,001,2026-04-03_11h04.21.768,DFv2,2026.1.1,MacIntel,61.34969325,,,,,,,,,,,,,,,,,,,,,,,,,,,,,,,,,,,,,,,,,,,,,,,,,,,,20,,,,,650.2127,650.4117,n,0.192,,0,57,57,19,1,shin,Y,,,,,,,,,,,,,,,,,,,,,
,053276,001,2026-04-03_11h04.21.768,DFv2,2026.1.1,MacIntel,61.34969325,,,,,,,,,,,,,,,,,,,,,,,,,,,,,,,,,,,,,,,,,,,,,,,,,,,,32,,,,,650.413,650.6282,n,0.2023,,0,58,58,31,1,bewitch,Y,,,,,,,,,,,,,,,,,,,,,
,053276,001,2026-04-03_11h04.21.768,DFv2,2026.1.1,MacIntel,61.34969325,,,,,,,,,,,,,,,,,,,,,,,,,,,,,,,,,,,,,,,,,,,,,,,,,,,,14,,,,,650.629,650.8617,n,0.2141,,0,59,59,13,1,unkempt,Y,,,,,,,,,,,,,,,,,,,,,
,053276,001,2026-04-03_11h04.21.768,DFv2,2026.1.1,MacIntel,61.34969325,,,,,,,,,,,,,,,,,,,,,,,,,,,,,,,,,,,,,,,,,,,,,,,,,,,,27,,,,,650.8627,651.095,n,0.2133,,0,60,60,26,1,eloquence,Y,,,,,,,,,,,,,,,,,,,,,
,053276,001,2026-04-03_11h04.21.768,DFv2,2026.1.1,MacIntel,61.34969325,,,,,,,,,,,,,,,,,,,,,,,,,,,,,,,,,,,,,,,,,,,,,,,,,,,,36,,,,,651.0961,651.3116,n,0.2016,,0,61,61,35,1,interfate,N,,,,,,,,,,,,,,,,,,,,,
,053276,001,2026-04-03_11h04.21.768,DFv2,2026.1.1,MacIntel,61.34969325,,,,,,,,,,,,,,,,,,,,,,,,,,,,,,,,,,,,,,,,,,,,,,,,,,,,18,,,,,651.3123,651.5449,n,0.2198,,0,62,62,17,1,savoury,Y,,,,,,,,,,,,,,,,,,,,,
,053276,001,2026-04-03_11h04.21.768,DFv2,2026.1.1,MacIntel,61.34969325,,,,,,,,,,,,,,,,,,,,,,,,,,,,,,,,,,,,,,,,,,,,,,,,,,,,,,,,,,,,,,,,,,,,,No,Yes,"[""none""]",Spanish,Item 1,"[""Item 1""]",10,10,10,10,0,Never,"[""Item 1""]",FALSE,Item 5,18,test karina,611122,2,2,here
,053276,001,2026-04-03_11h04.21.768,DFv2,2026.1.1,MacIntel,61.34969325,,,,,,,,,,,,,,,,,,,,,,,,,,,,,,,,,,,,,,,,,,,,,,,,,,,,,,,,,,,,,,,,,,,,,,,,,,,,,,,,,,,,,,,,,
